time,ax,ay,az,atotal
0.006803989410400391,0.18,-0.25,-0.28,0.41
0.008567094802856445,0.12,0.01,-0.42,0.43
0.014451980590820312,-0.27,0.24,0.01,0.36
0.02432703971862793,-0.32,-0.07,0.17,0.36
0.03445100784301758,-0.19,-0.12,-0.12,0.25
0.04432415962219238,-0.12,0.0,-0.23,0.25
0.0543980598449707,0.01,0.15,-0.35,0.38
0.06431698799133301,0.11,0.23,-0.32,0.4
0.07501101493835449,0.21,0.15,-0.02,0.25
0.08502197265625,0.29,-0.01,0.16,0.33
0.10297513008117676,0.31,-0.04,-0.04,0.31
0.10536694526672363,0.23,-0.05,-0.23,0.32
0.11445903778076172,0.14,-0.08,-0.21,0.26
0.12396693229675293,0.05,-0.16,0.01,0.16
0.13405609130859375,-0.01,-0.2,0.02,0.2
0.14408612251281738,0.01,-0.07,-0.23,0.24
0.15401387214660645,0.05,0.06,-0.25,0.26
0.16545414924621582,0.06,0.05,-0.04,0.08
0.17409706115722656,0.06,-0.04,0.15,0.16
0.18473601341247559,0.14,-0.05,0.1,0.17
0.20225787162780762,0.12,-0.01,0.1,0.15
0.20453095436096191,0.09,0.02,-0.02,0.09
0.21390008926391602,0.07,0.05,-0.15,0.17
0.2238140106201172,0.03,0.07,-0.13,0.15
0.23376917839050293,0.01,0.04,-0.04,0.05
0.24367117881774902,0.01,-0.01,-0.03,0.03
0.25376009941101074,0.02,-0.02,-0.07,0.07
0.2638819217681885,0.02,-0.01,-0.05,0.05
0.27434706687927246,0.12,-0.28,-0.22,0.37
0.28426599502563477,0.56,0.31,-0.47,0.79
0.30123400688171387,0.09,0.68,-0.24,0.72
0.3036160469055176,-0.06,0.1,-0.39,0.4
0.31351399421691895,0.0,-0.2,-0.57,0.6
0.323444128036499,-0.04,-0.32,-0.54,0.62
0.33347201347351074,0.11,-0.43,-0.73,0.85
0.34337592124938965,0.26,-0.4,-0.91,1.02
0.3539750576019287,0.38,-0.24,-1.08,1.16
0.364077091217041,0.36,-0.09,-1.21,1.26
0.3739011287689209,0.4,-0.16,-1.63,1.68
0.38388705253601074,0.66,-0.1,-1.76,1.88
0.4017460346221924,0.52,-0.1,-1.09,1.21
0.4042551517486572,0.24,-0.54,-0.42,0.72
0.41334986686706543,0.3,-0.79,-0.56,1.01
0.42307400703430176,0.57,-0.42,-1.13,1.33
0.4331049919128418,0.54,-0.04,-1.18,1.29
0.4429309368133545,0.32,-0.04,-0.72,0.78
0.45365405082702637,1.38,0.09,-0.22,1.4
0.4634830951690674,1.15,-0.4,0.52,1.32
0.473175048828125,1.46,-0.93,0.66,1.85
0.4834721088409424,0.95,-1.12,0.89,1.71
0.5024011135101318,-0.07,-1.1,0.8,1.36
0.5049660205841064,-0.67,-0.94,-0.29,1.19
0.5126378536224365,-1.78,-0.4,-0.97,2.06
0.5225780010223389,-2.38,0.98,-2.04,3.28
0.5327498912811279,-2.13,1.55,-3.15,4.1
0.5425388813018799,-2.55,1.28,-3.96,4.88
0.5535681247711182,-2.71,1.56,-3.99,5.06
0.5635578632354736,-2.79,1.93,-3.13,4.61
0.5731489658355713,-1.34,0.72,-1.56,2.17
0.5831959247589111,-0.11,-0.63,-0.77,1.0
0.5997650623321533,0.6,-0.17,0.69,0.93
0.6024549007415771,0.3,0.3,1.43,1.49
0.6124289035797119,-0.29,0.11,0.52,0.6
0.6223781108856201,-1.1,0.47,-0.62,1.34
0.6325230598449707,-0.64,0.9,-0.87,1.4
0.6421658992767334,-1.57,1.69,-2.07,3.09
0.6522660255432129,-0.84,1.99,-1.44,2.59
0.6621110439300537,-0.57,2.07,-1.51,2.62
0.6724169254302979,0.41,2.02,-0.12,2.06
0.682823896408081,0.97,2.04,0.92,2.43
0.6996309757232666,0.0,2.18,0.56,2.25
0.7021338939666748,-1.83,4.25,1.23,4.78
0.7118480205535889,-1.5,3.46,2.23,4.38
0.7219960689544678,-0.98,2.45,2.21,3.44
0.7317941188812256,-1.0,3.21,2.53,4.2
0.7419240474700928,-0.19,3.25,2.59,4.16
0.7518770694732666,0.34,3.09,1.96,3.67
0.7630641460418701,0.63,2.88,0.55,2.99
0.772252082824707,0.5,3.3,0.14,3.34
0.7823910713195801,-0.4,4.33,-0.49,4.37
0.8002710342407227,-1.58,4.35,-0.86,4.7
0.8023090362548828,-1.93,3.69,-0.31,4.17
0.8116328716278076,-1.35,2.52,0.4,2.88
0.8217909336090088,-1.54,2.55,0.99,3.13
0.8315770626068115,-1.42,2.3,1.08,2.91
0.8415029048919678,-1.65,1.83,1.04,2.67
0.8515450954437256,-1.99,1.66,1.06,2.79
0.8624200820922852,-1.82,1.32,1.0,2.46
0.8720040321350098,-1.53,1.2,0.56,2.02
0.8822309970855713,-1.5,1.1,-0.06,1.86
0.89982008934021,-1.69,1.02,-0.47,2.02
0.9023630619049072,-1.82,0.87,-0.74,2.14
0.9112551212310791,-1.69,0.7,-0.94,2.05
0.9213478565216064,-1.86,0.63,-0.9,2.16
0.9311721324920654,-1.95,0.41,-1.07,2.26
0.941338062286377,-2.08,0.06,-1.28,2.44
0.9510610103607178,-2.25,-0.27,-1.36,2.64
0.9610941410064697,-2.5,-0.61,-1.32,2.89
0.9713551998138428,-2.78,-1.01,-1.03,3.13
0.9809820652008057,-2.52,-1.25,-0.65,2.88
0.9983620643615723,-1.9,-1.28,-0.39,2.32
1.000830888748169,-1.39,-1.31,-0.21,1.92
1.0112669467926025,-1.32,-1.57,-0.09,2.05
1.0209438800811768,-1.77,-1.96,0.11,2.64
1.0310180187225342,-1.71,-1.24,0.31,2.13
1.0409371852874756,-1.93,-1.97,-0.06,2.75
1.05165696144104,-1.88,-2.47,-0.48,3.14
1.0611209869384766,-2.16,-2.41,-0.84,3.34
1.07088303565979,-2.33,-2.81,-1.15,3.82
1.08160400390625,-2.41,-3.07,-1.34,4.12
1.0999510288238525,-2.31,-3.29,-1.26,4.21
1.1026051044464111,-2.03,-3.59,-1.28,4.31
1.1105620861053467,-1.62,-3.87,-1.14,4.34
1.1205899715423584,-1.47,-4.0,-0.91,4.35
1.1306779384613037,-1.36,-4.45,-0.78,4.71
1.1405820846557617,-0.89,-5.05,-0.78,5.18
1.151298999786377,-1.14,-5.5,-1.31,5.76
1.161243200302124,-1.48,-6.32,-1.74,6.72
1.1707260608673096,-1.49,-6.97,-1.9,7.37
1.1811139583587646,-1.21,-7.43,-2.08,7.8
1.1984920501708984,-0.71,-7.77,-1.93,8.03
1.2010791301727295,-0.06,-7.84,-1.59,7.99
1.2101659774780273,1.04,-7.61,-1.12,7.76
1.220154047012329,2.32,-6.93,-0.43,7.32
1.2302470207214355,3.18,-6.0,0.22,6.79
1.2401530742645264,3.74,-5.21,0.7,6.45
1.2501540184020996,4.0,-4.59,1.11,6.18
1.2609331607818604,3.88,-4.12,1.25,5.79
1.2707421779632568,3.67,-3.98,1.19,5.54
1.2805721759796143,3.24,-4.16,1.18,5.4
1.2982509136199951,2.69,-3.94,1.15,4.9
1.300920009613037,2.57,-3.73,1.04,4.64
1.309826135635376,3.01,-3.69,0.82,4.83
1.3198020458221436,3.62,-3.54,0.58,5.09
1.3299071788787842,3.75,-3.25,0.37,4.97
1.3398301601409912,3.79,-3.02,0.12,4.84
1.3499939441680908,4.19,-2.85,0.19,5.07
1.3597540855407715,4.38,-2.21,0.24,4.91
1.3696610927581787,4.74,-1.71,0.65,5.08
1.3795440196990967,5.44,-0.95,1.22,5.65
1.397197961807251,6.11,-0.01,1.61,6.31
1.3997290134429932,6.43,1.1,1.68,6.73
1.4094810485839844,6.55,2.03,1.87,7.1
1.4195740222930908,6.62,2.94,1.81,7.46
1.429292917251587,6.42,3.69,1.76,7.61
1.4394590854644775,5.97,4.2,1.79,7.51
1.4494788646697998,5.35,4.59,1.74,7.26
1.4599649906158447,4.63,4.79,1.85,6.91
1.4692959785461426,4.07,5.0,2.16,6.79
1.4800059795379639,3.54,5.24,2.45,6.78
1.4967260360717773,3.23,5.52,2.42,6.83
1.4992799758911133,3.04,5.71,2.09,6.79
1.5092849731445312,3.0,5.91,1.68,6.83
1.5192110538482666,3.09,6.14,1.3,6.99
1.529142141342163,3.43,6.28,0.88,7.2
1.5393550395965576,3.48,6.39,0.65,7.3
1.5497639179229736,2.87,6.69,0.65,7.3
1.5591790676116943,2.48,6.81,0.6,7.27
1.5695898532867432,2.45,6.85,0.52,7.29
1.5791170597076416,2.82,6.94,0.55,7.51
1.5972280502319336,3.39,7.05,0.54,7.84
1.599726915359497,3.52,7.12,0.6,7.96
1.6087090969085693,3.58,7.04,0.79,7.93
1.6188480854034424,2.86,7.03,0.85,7.63
1.6286861896514893,2.49,6.88,0.96,7.37
1.638714075088501,2.65,6.68,1.37,7.31
1.6489040851593018,2.8,6.78,1.8,7.55
1.659276008605957,3.11,6.94,2.12,7.89
1.6692440509796143,3.59,6.89,2.27,8.09
1.6789371967315674,4.25,6.61,1.99,8.1
1.6961359977722168,4.52,6.33,1.52,7.92
1.6981379985809326,4.93,6.37,1.34,8.16
1.7084550857543945,5.35,6.2,1.07,8.25
1.7184321880340576,5.69,6.01,0.35,8.28
1.728365182876587,6.37,5.73,-0.2,8.57
1.738340139389038,7.37,4.71,-0.07,8.74
1.7484161853790283,7.52,4.82,-0.04,8.93
1.758885145187378,7.08,4.84,-0.16,8.57
1.7691318988800049,6.77,4.35,0.05,8.04
1.7785890102386475,6.13,4.4,0.14,7.54
1.7955830097198486,5.22,4.42,-0.22,6.84
1.7980101108551025,4.0,4.38,-0.51,5.95
1.808176040649414,3.21,3.91,-0.61,5.09
1.818134069442749,2.82,3.14,-0.62,4.26
1.828028917312622,2.66,2.38,-0.25,3.57
1.8382089138031006,2.51,1.83,0.12,3.1
1.8479130268096924,2.66,1.04,0.78,2.96
1.8585278987884521,2.95,0.69,1.17,3.24
1.8684871196746826,3.55,0.27,1.16,3.74
1.8779270648956299,4.48,-0.21,1.02,4.59
1.897022008895874,4.68,-0.63,0.74,4.77
1.8997209072113037,4.63,-1.06,0.66,4.79
1.9076449871063232,4.4,-1.5,0.85,4.72
1.9176928997039795,3.81,-1.99,1.12,4.44
1.9276092052459717,3.13,-2.5,1.36,4.23
1.937741994857788,2.52,-3.02,1.58,4.23
1.9475829601287842,1.81,-3.5,1.78,4.32
1.9581050872802734,1.13,-3.92,1.87,4.48
1.968461036682129,0.44,-4.37,1.82,4.75
1.9775831699371338,-0.2,-4.7,1.59,4.96
1.9946091175079346,-0.6,-5.05,1.2,5.22
1.9977500438690186,-0.93,-5.44,0.77,5.57
2.0076191425323486,-1.38,-5.8,0.31,5.96
2.0173630714416504,-1.94,-6.12,0.14,6.42
2.027574062347412,-2.32,-6.39,0.14,6.79
2.0372931957244873,-2.57,-6.54,0.11,7.02
2.04714298248291,-2.81,-6.61,0.04,7.18
2.057157039642334,-2.96,-6.58,-0.12,7.21
2.0671210289001465,-3.03,-6.52,-0.32,7.19
2.0778119564056396,-3.09,-6.4,-0.37,7.11
2.095062017440796,-3.2,-6.24,-0.27,7.01
2.0968329906463623,-3.26,-6.32,-0.09,7.11
2.107051134109497,-3.25,-6.36,0.14,7.14
2.117011070251465,-3.12,-6.52,0.21,7.23
2.127146005630493,-2.96,-6.82,0.3,7.44
2.1371190547943115,-2.66,-6.88,0.44,7.38
2.1478259563446045,-2.57,-7.03,0.36,7.49
2.157741069793701,-2.58,-7.29,0.08,7.73
2.167466878890991,-2.59,-7.38,-0.1,7.82
2.1769230365753174,-2.44,-7.3,-0.17,7.69
2.1956841945648193,-2.01,-7.28,-0.06,7.55
2.1979968547821045,-1.5,-7.22,0.27,7.37
2.2064201831817627,-1.25,-7.04,0.55,7.17
2.216801881790161,-0.96,-7.08,0.57,7.16
2.2264790534973145,-0.61,-7.21,0.48,7.25
2.236485004425049,-0.15,-7.25,0.33,7.25
2.2472970485687256,0.3,-7.13,0.2,7.13
2.2567989826202393,0.43,-6.76,0.2,6.77
2.2668650150299072,0.46,-6.43,0.2,6.44
2.2763869762420654,0.92,-6.55,-0.02,6.61
2.2956600189208984,1.8,-7.13,-0.46,7.36
2.29779314994812,2.45,-7.6,-1.08,8.05
2.3062920570373535,2.74,-7.57,-1.25,8.14
2.3161981105804443,2.74,-6.95,-0.79,7.51
2.326233148574829,2.29,-5.94,-0.19,6.36
2.336217164993286,1.75,-5.14,0.38,5.44
2.3460750579833984,1.77,-4.74,1.08,5.17
2.3561599254608154,2.18,-4.57,1.67,5.33
2.3671929836273193,2.68,-4.38,1.87,5.46
2.3760809898376465,2.87,-4.19,1.84,5.4
2.394345998764038,2.78,-3.93,2.0,5.21
2.3964669704437256,2.4,-3.59,1.85,4.69
2.4060699939727783,2.18,-3.57,1.53,4.45
2.4161360263824463,2.17,-3.25,1.47,4.17
2.4259440898895264,2.46,-2.72,1.39,3.92
2.4358808994293213,2.9,-2.15,1.14,3.78
2.4466490745544434,3.21,-1.21,1.0,3.57
2.4561851024627686,3.23,-0.45,0.89,3.38
2.4662270545959473,3.23,0.15,0.52,3.27
2.475823163986206,3.1,0.84,0.38,3.23
2.496980905532837,2.67,1.45,0.37,3.06
2.499519109725952,2.15,1.93,0.34,2.9
2.5056240558624268,1.79,2.37,0.62,3.03
2.5157148838043213,1.48,2.64,0.84,3.14
2.5254781246185303,1.18,2.98,0.87,3.32
2.535537004470825,0.76,3.48,0.89,3.67
2.5467090606689453,0.45,4.01,0.71,4.09
2.556082010269165,0.51,4.49,0.53,4.54
2.5661098957061768,0.7,4.82,0.54,4.9
2.5755221843719482,0.92,5.08,0.94,5.24
2.5947091579437256,1.16,5.36,1.44,5.66
2.596791982650757,1.36,5.42,1.78,5.86
2.6050500869750977,1.46,5.6,1.9,6.09
2.615135908126831,1.57,5.79,1.61,6.21
2.6252639293670654,1.66,5.83,1.31,6.2
2.6351799964904785,1.67,6.18,1.1,6.49
2.6450068950653076,1.88,6.35,0.9,6.68
2.6550750732421875,2.17,6.53,1.0,6.95
2.6658761501312256,2.49,6.71,1.32,7.27
2.674980878829956,2.73,6.89,1.45,7.55
2.693453073501587,3.01,7.02,1.5,7.78
2.6956241130828857,3.33,7.17,1.5,8.04
2.704928159713745,3.56,7.31,1.06,8.19
2.7147979736328125,3.71,7.35,0.7,8.26
2.724722146987915,3.85,7.53,0.77,8.49
2.7347400188446045,4.04,7.71,0.87,8.74
2.7447569370269775,4.24,7.77,0.89,8.89
2.754814863204956,4.54,7.65,1.03,8.95
2.7646050453186035,5.15,7.45,1.08,9.12
2.775581121444702,5.99,7.17,0.97,9.39
2.792072057723999,6.52,7.05,0.9,9.64
2.7941670417785645,6.83,7.12,0.45,9.87
2.8044521808624268,7.2,6.8,-0.31,9.9
2.814592123031616,7.68,6.35,-0.96,10.01
2.8244500160217285,7.56,5.6,-1.28,9.49
2.8343799114227295,6.94,4.59,-0.89,8.36
2.8443000316619873,5.9,3.89,0.02,7.06
2.855098009109497,4.63,3.79,1.14,6.09
2.8651039600372314,3.61,3.9,1.78,5.6
2.8745369911193848,3.12,3.5,1.66,4.97
2.8947410583496094,3.31,2.64,1.32,4.43
2.8972320556640625,3.75,2.04,0.94,4.37
2.904191017150879,4.2,1.68,0.65,4.56
2.9141290187835693,4.78,1.53,0.35,5.03
2.924028158187866,5.4,1.52,-0.1,5.61
2.9341020584106445,5.46,1.69,-0.45,5.73
2.9438910484313965,4.99,1.79,-0.64,5.33
2.954763174057007,4.56,1.39,-0.52,4.79
2.9648048877716064,4.22,0.89,-0.15,4.31
2.9743921756744385,4.04,0.37,0.11,4.05
2.994256019592285,3.92,-0.35,0.28,3.94
2.9966700077056885,3.41,-0.72,0.51,3.52
3.0037481784820557,2.61,-0.93,0.71,2.86
3.013746976852417,1.79,-1.1,0.9,2.28
3.02386212348938,1.01,-1.21,1.27,2.02
3.033919095993042,0.37,-1.45,1.72,2.27
3.0435259342193604,0.01,-1.81,2.19,2.84
3.0544040203094482,0.18,-2.32,2.61,3.49
3.0644781589508057,0.67,-2.76,2.48,3.77
3.07403302192688,0.79,-2.94,1.93,3.6
3.092808961868286,0.42,-3.03,1.32,3.33
3.0951759815216064,-0.26,-3.2,0.76,3.29
3.1033430099487305,-1.21,-3.39,0.37,3.61
3.1134800910949707,-2.14,-3.55,0.24,4.15
3.1234140396118164,-2.71,-3.84,0.42,4.71
3.1332950592041016,-2.94,-4.29,0.63,5.23
3.1433908939361572,-2.92,-4.76,0.92,5.65
3.153272867202759,-2.71,-5.17,1.29,5.97
3.163145065307617,-2.38,-5.46,1.42,6.12
3.1738531589508057,-2.02,-5.63,1.21,6.1
3.191009998321533,-2.06,-5.74,0.75,6.14
3.1930391788482666,-2.33,-5.79,0.45,6.25
3.2033300399780273,-2.54,-5.76,0.19,6.29
3.2130939960479736,-2.47,-5.82,-0.18,6.32
3.223457098007202,-2.3,-6.01,-0.41,6.44
3.2328269481658936,-2.1,-6.28,-0.41,6.63
3.242838144302368,-1.93,-6.5,-0.37,6.79
3.2536070346832275,-1.67,-6.63,-0.18,6.83
3.2632811069488525,-1.49,-6.67,0.18,6.83
3.273228883743286,-1.38,-6.8,0.48,6.95
3.292907953262329,-1.36,-7.06,0.74,7.22
3.2951250076293945,-1.39,-7.35,0.92,7.53
3.3027141094207764,-1.44,-7.49,1.08,7.7
3.3125460147857666,-1.45,-7.42,1.31,7.67
3.3228089809417725,-1.41,-7.1,1.65,7.42
3.3325979709625244,-1.09,-6.93,1.99,7.29
3.343317985534668,-0.33,-7.25,2.11,7.55
3.353381872177124,0.31,-7.64,1.93,7.88
3.3633310794830322,0.88,-7.84,1.57,8.04
3.3726940155029297,1.2,-7.77,1.25,7.96
3.393239974975586,1.17,-7.59,1.03,7.74
3.395794153213501,0.53,-7.1,1.06,7.19
3.402445077896118,-0.28,-6.61,1.26,6.73
3.4123730659484863,-0.63,-6.79,1.58,6.99
3.4223310947418213,-0.74,-7.34,1.9,7.61
3.4322550296783447,-0.81,-7.64,2.25,8.0
3.442790985107422,-0.67,-7.78,2.46,8.18
3.4528019428253174,-0.41,-7.71,2.65,8.16
3.462630033493042,-0.24,-7.39,2.75,7.88
3.472342014312744,-0.12,-6.92,2.68,7.42
3.492259979248047,-0.16,-6.44,2.42,6.88
3.4946579933166504,-0.12,-5.9,2.07,6.25
3.5020620822906494,-0.02,-5.36,1.78,5.64
3.511976957321167,0.03,-4.74,1.64,5.01
3.5223469734191895,0.01,-4.03,1.54,4.31
3.531898021697998,0.03,-3.35,1.37,3.61
3.541785955429077,-0.09,-2.68,1.35,3.0
3.551835060119629,-0.22,-1.99,1.27,2.37
3.5616250038146973,-0.29,-1.43,0.93,1.73
3.571704149246216,-0.39,-0.85,0.68,1.15
3.589505910873413,-0.42,-0.25,0.49,0.69
3.5917370319366455,-0.29,0.32,0.32,0.53
3.60174298286438,-0.14,0.85,0.11,0.86
3.611747980117798,0.07,1.4,-0.08,1.4
3.6215670108795166,0.48,1.96,-0.24,2.03
3.6324169635772705,0.75,2.48,-0.48,2.63
3.641732931137085,0.97,2.9,-0.61,3.11
3.652029037475586,1.25,3.19,-0.6,3.47
3.661581039428711,1.57,3.48,-0.64,3.87
3.6717112064361572,1.82,3.63,-0.64,4.11
3.692931890487671,2.02,3.77,-0.67,4.32
3.6954119205474854,2.33,3.83,-0.69,4.53
3.7010140419006348,2.71,3.95,-0.68,4.83
3.711494207382202,3.11,4.22,-0.68,5.28
3.721472978591919,3.46,4.62,-0.6,5.8
3.7312629222869873,3.96,5.02,-0.19,6.39
3.7421250343322754,4.76,5.46,0.44,7.25
3.7517659664154053,5.66,6.0,0.97,8.3
3.7612059116363525,6.55,6.48,0.89,9.25
3.7711920738220215,7.32,6.97,0.2,10.1
3.7907400131225586,7.58,7.57,-0.81,10.74
3.7933928966522217,7.3,7.94,-1.87,10.94
3.800956964492798,6.91,7.93,-2.36,10.77
3.810842990875244,6.63,7.86,-1.98,10.47
3.821100950241089,6.48,7.92,-1.28,10.31
3.8308331966400146,6.56,7.74,-0.81,10.17
3.8415639400482178,6.72,7.43,-0.56,10.03
3.8514139652252197,6.68,7.21,-0.41,9.83
3.8608238697052,6.64,6.86,-0.29,9.55
3.8711769580841064,6.82,6.42,-0.21,9.36
3.89090895652771,7.11,6.16,-0.19,9.4
3.893477201461792,7.53,6.06,-0.4,9.67
3.9004881381988525,7.87,5.76,-0.98,9.8
3.910465955734253,7.75,5.62,-1.74,9.73
3.9206879138946533,7.22,5.73,-2.31,9.5
3.930459976196289,6.64,5.73,-2.51,9.12
3.9405100345611572,6.13,5.13,-2.41,8.34
3.9512531757354736,5.73,4.3,-1.63,7.34
3.960813045501709,5.56,3.46,-0.43,6.56
3.970792055130005,5.45,2.85,0.5,6.17
3.990290880203247,5.45,2.52,1.0,6.08
3.992224931716919,5.49,2.45,0.93,6.08
3.9999611377716064,5.19,2.45,0.2,5.74
4.0101001262664795,4.36,2.42,-0.58,5.02
4.020188093185425,3.38,2.42,-0.95,4.26
4.030092000961304,2.45,2.29,-0.88,3.46
4.039921998977661,1.66,1.98,-0.27,2.59
4.050080060958862,0.98,1.76,0.55,2.08
4.0607850551605225,0.5,1.55,1.32,2.09
4.07069206237793,0.32,1.3,1.79,2.23
4.090066194534302,0.23,0.96,1.98,2.21
4.092297077178955,-0.06,0.64,1.91,2.01
4.09962010383606,-0.49,0.34,1.77,1.86
4.109720945358276,-0.87,-0.05,1.61,1.83
4.120158910751343,-1.12,-0.49,1.45,1.89
4.129580020904541,-1.25,-0.85,1.28,1.98
4.139814138412476,-1.4,-1.07,1.14,2.09
4.150396108627319,-1.73,-1.28,1.02,2.38
4.159680128097534,-2.07,-1.53,0.96,2.74
4.170336008071899,-2.26,-1.77,1.06,3.06
4.189482927322388,-2.27,-2.05,1.23,3.29
4.191617012023926,-2.29,-2.33,1.4,3.55
4.199480056762695,-2.2,-2.55,1.68,3.76
4.209389925003052,-2.0,-2.89,1.72,3.91
4.219470977783203,-1.79,-3.37,1.75,4.19
4.229262113571167,-1.64,-3.86,1.75,4.54
4.240071058273315,-1.59,-4.4,1.8,5.01
4.249975919723511,-1.58,-4.94,1.97,5.54
4.259205102920532,-1.71,-5.41,2.16,6.07
4.270119905471802,-1.92,-5.78,2.43,6.55
4.290438890457153,-2.05,-6.15,2.81,7.06
4.292702913284302,-2.06,-6.45,3.1,7.44
4.2988200187683105,-2.12,-6.64,3.36,7.73
4.3090550899505615,-2.2,-6.77,3.47,7.91
4.319189071655273,-2.08,-6.95,3.58,8.08
4.328902959823608,-1.67,-7.11,3.46,8.08
4.339838981628418,-1.27,-7.19,3.02,7.9
4.349930047988892,-1.2,-7.19,2.45,7.69
4.358950853347778,-1.23,-7.1,1.97,7.47
4.369550943374634,-0.73,-7.67,1.58,7.86
4.388871908187866,0.43,-9.37,1.24,9.46
4.390866994857788,1.32,-11.22,1.2,11.36
4.398519992828369,1.46,-12.07,1.56,12.25
4.40867805480957,1.04,-11.57,2.24,11.83
4.418873071670532,0.27,-9.92,3.01,10.37
4.428616046905518,-0.43,-8.35,3.59,9.09
4.438647985458374,-0.44,-7.81,3.87,8.72
4.449331998825073,-0.34,-7.94,3.76,8.79
4.458558082580566,-0.74,-7.8,3.34,8.51
4.469202041625977,-1.02,-7.56,2.99,8.19
4.486937046051025,-0.93,-7.49,2.72,8.02
4.489030122756958,-0.8,-7.56,2.19,7.91
4.498354196548462,-0.82,-7.73,1.56,7.92
4.50846004486084,-0.96,-7.6,1.09,7.73
4.518341064453125,-1.0,-7.13,0.67,7.23
4.528177976608276,-0.93,-6.46,0.26,6.53
4.53916597366333,-0.95,-5.59,-0.01,5.67
4.549404859542847,-1.14,-4.64,-0.14,4.78
4.558876037597656,-1.57,-3.69,-0.1,4.01
4.569077014923096,-2.02,-2.96,-0.01,3.58
4.587593078613281,-2.27,-2.5,0.14,3.37
4.589586019515991,-2.43,-2.15,0.23,3.25
4.597855091094971,-2.59,-1.84,0.23,3.18
4.608123064041138,-2.72,-1.55,0.31,3.14
4.6181418895721436,-2.81,-1.03,0.32,3.0
4.627933979034424,-2.9,-0.57,0.09,2.95
4.637852907180786,-2.91,-0.3,-0.07,2.92
4.64879298210144,-2.73,-0.05,-0.05,2.73
4.658046007156372,-2.37,0.35,0.03,2.39
4.668431997299194,-1.73,0.74,0.11,1.88
4.68804407119751,-1.14,1.01,0.3,1.55
4.690366983413696,-0.47,1.46,0.36,1.57
4.697530031204224,0.2,2.15,0.14,2.16
4.707578897476196,0.8,2.59,-0.12,2.71
4.717658996582031,1.24,2.88,-0.44,3.16
4.7275230884552,1.29,3.09,-0.94,3.47
4.737530946731567,1.4,3.08,-1.21,3.59
4.747511148452759,1.61,3.17,-1.32,3.79
4.757643938064575,2.0,3.31,-1.39,4.1
4.767503023147583,2.79,3.44,-1.13,4.57
4.786128044128418,3.84,3.63,-0.78,5.34
4.788177013397217,4.85,3.9,-0.44,6.23
4.797461986541748,5.6,4.32,0.04,7.07
4.807225942611694,6.1,5.0,0.22,7.89
4.817193031311035,6.52,5.55,0.13,8.56
4.82726788520813,7.03,5.88,-0.02,9.16
4.837187051773071,7.22,6.17,-0.22,9.49
4.8470518589019775,7.43,6.42,-0.42,9.82
4.857961893081665,7.71,6.69,-0.55,10.22
4.8676111698150635,7.98,6.92,-0.7,10.58
4.887117147445679,8.64,6.9,-0.93,11.09
4.88927698135376,9.79,6.03,-1.45,11.58
4.89669394493103,11.03,4.91,-1.78,12.2
4.90692400932312,11.55,4.87,-2.01,12.69
4.916853189468384,11.26,5.77,-2.62,12.92
4.926943063735962,11.06,6.12,-3.4,13.08
4.93712592124939,10.15,6.22,-4.42,12.69
4.9477009773254395,9.4,5.86,-4.84,12.08
4.957646131515503,8.76,4.69,-3.8,10.63
4.967458963394165,7.83,4.3,-2.03,9.16
4.986063003540039,7.08,3.85,-0.4,8.06
4.988022089004517,6.54,3.48,0.74,7.44
4.996335029602051,6.32,3.32,0.84,7.18
5.006603002548218,6.51,3.28,0.06,7.28
5.0165488719940186,6.63,3.37,-0.72,7.47
5.026460886001587,6.34,3.78,-1.27,7.48
5.036473989486694,5.7,4.0,-1.59,7.14
5.04635214805603,4.9,3.99,-1.52,6.49
5.056340932846069,4.19,3.78,-1.27,5.78
5.0671210289001465,3.52,3.54,-0.8,5.05
5.085416078567505,2.78,3.47,0.01,4.44
5.0873870849609375,2.08,3.39,0.68,4.03
5.0959742069244385,1.7,3.07,1.26,3.72
5.106340169906616,1.42,2.68,1.48,3.37
5.116189002990723,0.74,2.29,1.49,2.83
5.126268148422241,0.13,1.86,1.62,2.47
5.136099100112915,-0.49,1.42,1.7,2.26
5.146704912185669,-1.18,1.02,1.79,2.37
5.156524896621704,-1.48,0.56,1.85,2.43
5.166527032852173,-1.57,0.17,1.77,2.37
5.18595290184021,-1.51,-0.05,1.7,2.27
5.188442945480347,-1.52,-0.44,1.55,2.21
5.195946931838989,-1.31,-1.06,1.49,2.24
5.205889940261841,-0.92,-1.64,1.71,2.54
5.215986967086792,-1.03,-2.16,1.97,3.09
5.225896120071411,-1.48,-2.66,2.21,3.76
5.235774993896484,-1.86,-3.18,2.33,4.35
5.246517896652222,-1.91,-3.74,2.35,4.81
5.255943059921265,-1.54,-4.31,2.38,5.15
5.26623797416687,-0.93,-4.91,2.25,5.48
5.286027193069458,-0.35,-5.32,2.16,5.75
5.288388013839722,-0.06,-5.7,2.06,6.06
5.295673131942749,0.04,-6.11,1.87,6.38
5.305487871170044,0.08,-6.51,1.74,6.73
5.31538200378418,0.22,-6.9,1.91,7.16
5.325441122055054,0.4,-7.28,2.14,7.59
5.335458040237427,0.56,-7.46,2.39,7.85
5.346481084823608,0.61,-7.57,2.51,7.99
5.356091022491455,0.72,-7.71,2.37,8.09
5.365952014923096,1.49,-8.59,1.78,8.89
5.385941982269287,2.82,-10.46,0.85,10.86
5.388199090957642,3.39,-11.95,-0.07,12.42
5.39490818977356,2.49,-11.63,-0.32,11.89
5.40491795539856,1.11,-9.88,0.4,9.95
5.415138006210327,0.6,-8.77,1.56,8.92
5.425297975540161,0.89,-8.63,2.56,9.04
5.435091972351074,1.4,-9.14,3.41,9.85
5.444849014282227,1.6,-9.32,3.83,10.2
5.455278158187866,1.44,-9.22,3.81,10.07
5.465703010559082,1.17,-9.19,3.18,9.79
5.483725070953369,0.9,-9.26,2.11,9.53
5.485691070556641,0.59,-9.07,0.96,9.13
5.495065927505493,0.36,-8.57,-0.29,8.58
5.504945993423462,0.37,-7.96,-1.52,8.11
5.514850854873657,0.39,-7.3,-2.19,7.63
5.524690866470337,0.06,-6.66,-2.26,7.03
5.534877061843872,-0.99,-5.97,-2.17,6.42
5.5457470417022705,-2.18,-5.42,-2.01,6.17
5.554889917373657,-3.04,-5.02,-1.88,6.16
5.565231084823608,-3.62,-4.67,-1.72,6.15
5.583949089050293,-3.98,-4.32,-1.59,6.08
5.5860021114349365,-4.52,-3.85,-1.29,6.07
5.5942418575286865,-5.06,-3.52,-0.83,6.21
5.604585886001587,-5.39,-3.28,-0.41,6.32
5.614445924758911,-5.4,-2.97,0.01,6.16
5.624303102493286,-5.26,-2.62,0.33,5.88
5.634346008300781,-4.74,-2.32,0.45,5.29
5.645071029663086,-4.03,-1.93,0.55,4.5
5.6549460887908936,-3.33,-1.54,0.64,3.72
5.665150880813599,-2.64,-1.18,0.58,2.94
5.684159994125366,-2.17,-0.83,0.45,2.36
5.68615198135376,-1.94,-0.6,0.32,2.05
5.693804979324341,-2.0,-0.42,0.36,2.07
5.703817129135132,-2.08,-0.35,0.39,2.14
5.714075088500977,-1.96,-0.37,0.46,2.04
5.724299192428589,-1.4,-0.37,0.59,1.56
5.733975172042847,-0.46,-0.16,0.73,0.87
5.743889093399048,0.95,0.22,0.75,1.23
5.7539331912994385,2.23,0.81,0.42,2.4
5.763692140579224,3.12,1.36,-0.11,3.4
5.78270697593689,3.86,1.98,-0.67,4.38
5.784638166427612,3.98,2.63,-1.12,4.9
5.793500185012817,3.83,3.31,-1.29,5.22
5.803531885147095,3.64,3.98,-1.19,5.52
5.813531160354614,3.68,4.45,-0.96,5.85
5.823592901229858,4.16,4.75,-0.53,6.33
5.833471059799194,5.05,4.84,-0.31,7.0
5.843541860580444,5.79,4.94,-0.1,7.61
5.853538990020752,6.61,5.2,0.15,8.41
5.864531993865967,7.75,5.06,0.35,9.26
5.883777856826782,9.41,4.16,0.44,10.29
5.885896921157837,11.14,3.54,0.54,11.7
5.89315390586853,12.36,4.41,0.55,13.13
5.903382062911987,13.07,5.89,-0.49,14.34
5.913244009017944,12.66,7.06,-2.31,14.67
5.923434019088745,11.49,7.93,-4.2,14.57
5.933240175247192,9.66,8.11,-5.6,13.8
5.9439170360565186,7.35,7.67,-5.49,11.95
5.954024076461792,5.34,6.64,-3.78,9.32
5.964088201522827,3.66,5.5,-1.79,6.84
5.9824559688568115,2.33,4.91,-0.51,5.45
5.984508991241455,1.5,4.4,-0.23,4.65
5.9929258823394775,0.79,4.15,-0.51,4.25
6.002801179885864,0.21,4.0,-0.83,4.09
6.012832880020142,0.05,3.93,-1.04,4.06
6.022812128067017,0.27,4.05,-1.22,4.23
6.03286600112915,0.73,4.34,-1.13,4.54
6.042702913284302,0.95,4.7,-1.08,4.91
6.052788019180298,0.76,4.99,-1.04,5.15
6.062695026397705,0.3,5.17,-0.88,5.25
6.081617116928101,-0.33,5.43,-0.66,5.47
6.0834550857543945,-0.94,5.64,-0.2,5.72
6.092383146286011,-1.42,5.83,0.46,6.01
6.102648973464966,-1.7,5.8,1.19,6.16
6.112655878067017,-1.76,5.66,1.93,6.23
6.122543096542358,-1.65,5.43,2.53,6.21
6.132475137710571,-1.78,5.12,2.87,6.13
6.143204927444458,-2.07,4.64,2.99,5.89
6.153044939041138,-2.34,4.06,3.14,5.64
6.163285970687866,-2.38,3.41,3.27,5.29
6.181419134140015,-2.07,2.74,3.28,4.74
6.183397054672241,-1.76,2.16,2.96,4.06
6.192085027694702,-1.48,1.59,2.54,3.34
6.202358961105347,-1.0,1.13,2.18,2.65
6.21211314201355,-0.25,0.67,1.85,1.98
6.222212076187134,0.61,0.12,1.66,1.77
6.232161045074463,1.54,-0.43,1.48,2.17
6.242078065872192,2.47,-0.93,1.29,2.93
6.252035856246948,3.43,-1.64,1.11,3.96
6.261880159378052,4.29,-2.5,1.1,5.08
6.281840085983276,5.12,-3.17,1.08,6.11
6.283940076828003,5.56,-3.64,0.73,6.68
6.2917468547821045,5.55,-3.98,0.1,6.83
6.3020241260528564,5.24,-4.29,-0.61,6.79
6.311785936355591,4.64,-4.6,-1.12,6.62
6.321982145309448,3.89,-4.95,-0.86,6.35
6.331968069076538,2.97,-5.2,-0.01,5.98
6.342725038528442,2.13,-5.39,0.98,5.87
6.352370977401733,1.66,-6.01,1.68,6.45
6.36168098449707,2.01,-7.52,2.1,8.06
6.382128000259399,2.87,-9.1,2.11,9.77
6.38416314125061,3.55,-10.07,1.64,10.8
6.391317129135132,3.24,-10.02,1.1,10.58
6.401525974273682,2.37,-9.22,0.65,9.54
6.411477088928223,1.5,-8.77,-0.01,8.89
6.421425104141235,0.33,-8.59,-0.21,8.59
6.43142294883728,-1.11,-7.84,0.39,7.92
6.442002058029175,-2.07,-7.11,1.55,7.56
6.452027082443237,-2.35,-6.82,2.61,7.67
6.461405992507935,-2.41,-6.82,3.44,8.0
6.483019113540649,-2.58,-6.77,3.78,8.17
6.48512601852417,-2.54,-6.77,3.62,8.08
6.490941047668457,-2.4,-6.73,3.13,7.8
6.501211881637573,-2.26,-6.55,2.49,7.36
6.5110390186309814,-2.3,-6.26,1.96,6.95
6.521445989608765,-2.55,-5.85,1.81,6.63
6.53111720085144,-2.9,-5.4,1.94,6.42
6.5409650802612305,-3.32,-5.08,2.15,6.43
6.551063060760498,-3.85,-4.81,2.08,6.5
6.562019109725952,-4.28,-4.6,1.81,6.53
6.580339193344116,-4.51,-4.34,1.6,6.46
6.581943035125732,-4.75,-4.07,1.26,6.38
6.590888023376465,-5.01,-3.81,0.85,6.35
6.60108208656311,-5.27,-3.64,0.63,6.43
6.610743999481201,-5.57,-3.39,0.54,6.54
6.620801210403442,-5.49,-3.11,0.43,6.32
6.630768060684204,-4.81,-3.0,0.67,5.7
6.640622854232788,-3.94,-2.75,0.81,4.87
6.650657892227173,-3.38,-2.37,0.92,4.22
6.661418199539185,-3.02,-2.03,0.92,3.75
6.680730104446411,-2.52,-1.79,0.85,3.2
6.682882070541382,-1.78,-1.62,0.7,2.5
6.690201997756958,-0.93,-1.48,0.37,1.78
6.7001869678497314,-0.17,-1.36,0.17,1.38
6.710426092147827,0.32,-1.12,0.02,1.16
6.720499038696289,0.74,-0.91,0.11,1.17
6.7303221225738525,1.18,-0.39,0.41,1.3
6.741154909133911,1.85,0.13,0.64,1.96
6.750981092453003,2.54,0.67,0.81,2.74
6.760493040084839,3.15,1.34,0.77,3.5
6.781638860702515,3.57,2.06,0.51,4.15
6.783557176589966,3.9,2.71,0.11,4.75
6.79011607170105,4.13,3.35,-0.37,5.33
6.800317049026489,4.39,3.79,-0.64,5.83
6.810107946395874,4.83,4.04,-0.79,6.34
6.820366144180298,5.38,4.37,-1.09,7.01
6.8299760818481445,5.93,4.83,-1.49,7.79
6.840718984603882,6.5,5.27,-1.82,8.56
6.850593090057373,7.08,5.61,-2.11,9.27
6.8603620529174805,7.98,5.4,-2.36,9.92
6.882044076919556,8.94,4.85,-2.48,10.46
6.88421893119812,9.44,4.74,-2.31,10.81
6.889591932296753,9.4,5.12,-2.08,10.9
6.899708986282349,8.84,5.65,-2.09,10.69
6.9097230434417725,7.88,6.04,-2.3,10.19
6.9196460247039795,6.83,6.18,-2.45,9.53
6.929638147354126,5.92,5.88,-2.29,8.65
6.9401891231536865,5.29,5.23,-1.66,7.62
6.94999098777771,4.95,4.71,-0.99,6.9
6.959589004516602,4.79,4.59,-0.72,6.67
6.981847047805786,4.65,4.55,-0.72,6.54
6.98400092124939,4.34,4.6,-0.84,6.37
6.989181041717529,3.88,4.71,-0.93,6.17
6.9991819858551025,3.29,4.62,-0.85,5.73
7.009437084197998,2.71,4.42,-0.59,5.21
7.019352197647095,2.18,4.24,-0.23,4.77
7.029321908950806,1.8,4.2,0.12,4.57
7.039255857467651,1.54,4.23,0.37,4.51
7.049235105514526,1.36,4.32,0.55,4.56
7.059122085571289,1.16,4.49,0.7,4.68
7.0788891315460205,0.88,4.66,0.82,4.81
7.080787897109985,0.55,4.72,0.79,4.81
7.08899712562561,0.3,4.6,0.77,4.67
7.099169969558716,0.0,4.36,0.79,4.43
7.1090171337127686,-0.49,3.98,0.99,4.13
7.119262933731079,-0.94,3.6,1.18,3.9
7.128939867019653,-1.27,3.16,1.47,3.7
7.1396520137786865,-1.43,2.72,1.63,3.47
7.1494669914245605,-1.31,2.25,1.73,3.12
7.159560918807983,-1.23,1.88,1.78,2.86
7.179903984069824,-1.31,1.44,1.83,2.67
7.1818320751190186,-1.2,0.98,1.87,2.42
7.188482999801636,-1.05,0.41,1.91,2.21
7.198683023452759,-0.96,-0.28,1.98,2.21
7.2086169719696045,-0.76,-1.05,1.97,2.35
7.218691110610962,-0.66,-1.86,1.92,2.75
7.228591203689575,-0.6,-2.69,1.79,3.28
7.2393128871917725,-0.43,-3.46,1.69,3.87
7.249263048171997,-0.09,-4.04,1.77,4.41
7.25856614112854,0.4,-4.38,1.88,4.78
7.280802011489868,1.23,-4.45,1.96,5.01
7.282999038696289,2.0,-4.22,2.06,5.1
7.288224935531616,2.4,-3.88,2.15,5.04
7.298352003097534,2.52,-3.57,2.14,4.86
7.308449983596802,2.44,-3.3,2.08,4.6
7.318162202835083,2.27,-3.22,2.0,4.41
7.328280210494995,1.93,-3.23,2.09,4.3
7.338855981826782,1.42,-3.22,2.5,4.31
7.348965883255005,1.2,-3.57,2.91,4.75
7.35878586769104,1.9,-5.19,2.93,6.25
7.3784801959991455,2.97,-7.57,2.65,8.55
7.380328893661499,3.37,-9.14,2.57,10.07
7.387804985046387,2.74,-9.12,2.62,9.87
7.397826910018921,1.67,-8.01,2.89,8.67
7.407882928848267,0.73,-7.04,2.98,7.67
7.417840003967285,0.24,-6.64,2.96,7.27
7.428168058395386,0.38,-6.71,2.83,7.29
7.437805891036987,0.93,-6.87,2.74,7.45
7.447746992111206,1.14,-6.85,2.78,7.48
7.457889080047607,0.88,-6.91,2.89,7.54
7.477612018585205,0.34,-7.07,2.9,7.64
7.479553937911987,-0.43,-7.12,2.7,7.62
7.487518072128296,-1.26,-7.02,2.45,7.54
7.497658967971802,-2.01,-6.7,2.18,7.32
7.507654905319214,-2.62,-6.19,1.94,6.99
7.517596006393433,-3.22,-5.58,1.76,6.67
7.5275352001190186,-3.77,-4.98,1.68,6.46
7.538127183914185,-4.19,-4.42,1.59,6.29
7.548392057418823,-4.5,-3.91,1.44,6.13
7.557537078857422,-4.69,-3.4,1.09,5.89
7.5802130699157715,-4.61,-3.03,0.65,5.55
7.582521200180054,-4.54,-2.6,0.28,5.23
7.5870280265808105,-4.7,-2.22,-0.02,5.19
7.597080945968628,-4.98,-1.82,-0.11,5.3
7.607528924942017,-5.17,-1.43,-0.09,5.36
7.6171910762786865,-5.13,-1.18,0.0,5.26
7.627969026565552,-4.89,-0.98,0.23,4.99
7.6378419399261475,-4.51,-0.73,0.46,4.59
7.6473870277404785,-4.07,-0.55,0.52,4.13
7.657285928726196,-3.71,-0.4,0.42,3.75
7.678663969039917,-3.47,-0.28,0.36,3.49
7.68061089515686,-3.07,-0.16,0.37,3.09
7.686748027801514,-2.48,-0.13,0.25,2.49
7.6968371868133545,-1.74,-0.03,0.13,1.74
7.706770181655884,-0.97,0.09,-0.01,0.97
7.716856002807617,-0.08,0.3,-0.13,0.33
7.726732969284058,1.05,0.71,-0.32,1.3
7.736775159835815,2.33,1.16,-0.63,2.67
7.7467029094696045,3.25,1.61,-0.82,3.71
7.75731897354126,4.0,2.19,-0.77,4.62
7.777275085449219,4.4,2.8,-0.61,5.25
7.77928900718689,4.32,3.34,-0.43,5.47
7.786410093307495,4.27,3.91,-0.31,5.79
7.796794176101685,4.73,4.39,-0.56,6.47
7.8064329624176025,5.25,4.76,-0.84,7.13
7.8164520263671875,5.72,5.14,-1.22,7.78
7.826279878616333,6.15,5.54,-1.93,8.49
7.836359024047852,6.55,5.53,-2.65,8.97
7.846140146255493,7.1,4.95,-2.8,9.09
7.856300115585327,8.01,3.93,-2.22,9.19
7.87597918510437,8.98,3.63,-1.03,9.74
7.877940893173218,9.76,4.26,-0.1,10.64
7.886188983917236,10.18,4.96,-0.23,11.32
7.896056890487671,9.9,5.48,-1.2,11.37
7.906163930892944,9.34,5.99,-2.13,11.29
7.9159910678863525,8.69,6.14,-2.64,10.96
7.92602801322937,7.86,5.58,-2.67,10.0
7.936795949935913,6.86,4.92,-1.66,8.6
7.946565866470337,5.76,4.46,-0.36,7.29
7.956588983535767,4.87,3.81,0.67,6.21
7.978308916091919,4.17,3.27,1.38,5.47
7.9803690910339355,3.52,2.96,1.64,4.88
7.985769033432007,2.81,2.9,1.68,4.37
7.995881080627441,2.25,2.93,1.6,4.02
8.005791902542114,2.49,2.94,1.33,4.07
8.015981912612915,2.55,3.43,1.01,4.39
8.02563214302063,2.24,3.91,0.43,4.52
8.036422967910767,1.63,4.21,-0.33,4.52
8.045942068099976,0.76,4.37,-1.07,4.56
8.056217908859253,-0.04,4.32,-1.57,4.59
8.07747197151184,-0.75,4.08,-1.62,4.45
8.079540014266968,-1.38,3.79,-1.22,4.21
8.08543086051941,-1.97,3.47,-0.55,4.02
8.095503091812134,-2.42,3.04,0.18,3.88
8.105424165725708,-2.67,2.67,0.94,3.89
8.115285158157349,-2.69,2.46,1.64,3.99
8.125314950942993,-2.63,2.27,2.03,4.02
8.13528299331665,-2.47,2.08,2.12,3.86
8.145364999771118,-2.25,1.85,2.02,3.54
8.155924081802368,-2.21,1.73,1.92,3.4
8.1753830909729,-2.03,1.5,1.76,3.07
8.177443027496338,-1.6,1.09,1.82,2.65
8.185056924819946,-1.3,0.55,1.9,2.36
8.195091009140015,-1.28,-0.14,1.88,2.27
8.205422163009644,-1.32,-0.95,1.88,2.48
8.214954137802124,-1.29,-1.79,2.0,2.97
8.22497010231018,-1.14,-2.62,2.19,3.6
8.23492693901062,-0.77,-3.43,2.35,4.22
8.244908094406128,-0.1,-4.29,2.48,4.95
8.254796981811523,0.62,-4.85,2.6,5.53
8.27457594871521,1.39,-5.09,2.58,5.87
8.276494026184082,1.87,-5.23,2.31,6.01
8.28465485572815,2.01,-5.32,2.01,6.03
8.294778108596802,2.01,-5.48,1.87,6.12
8.304732084274292,1.92,-5.75,1.93,6.36
8.314903020858765,1.59,-5.99,2.37,6.63
8.324563980102539,1.04,-6.09,2.88,6.81
8.335442066192627,0.92,-6.6,3.11,7.35
8.344659090042114,1.58,-8.03,2.81,8.65
8.354644060134888,2.26,-9.86,2.14,10.33
8.37689208984375,2.2,-10.67,1.81,11.04
8.378912210464478,1.72,-9.98,1.92,10.3
8.384046077728271,1.01,-8.64,2.29,8.99
8.394602060317993,0.4,-7.93,2.67,8.37
8.40437912940979,0.02,-8.09,2.92,8.6
8.414354085922241,-0.52,-8.54,3.02,9.07
8.424520015716553,-1.12,-8.91,3.02,9.47
8.434956073760986,-1.47,-9.26,2.92,9.82
8.444602012634277,-1.57,-9.51,2.57,9.97
8.454857110977173,-1.36,-9.65,2.02,9.95
8.476589918136597,-1.2,-9.54,1.26,9.69
8.47871208190918,-1.15,-9.21,0.55,9.29
8.483802080154419,-1.02,-8.5,0.04,8.56
8.494078874588013,-1.12,-7.52,-0.33,7.61
8.503925085067749,-1.39,-6.4,-0.3,6.55
8.51392912864685,-1.73,-5.52,-0.12,5.78
8.523805856704712,-2.11,-4.86,0.07,5.29
8.53385305404663,-2.58,-4.26,0.36,4.99
8.543649911880493,-3.16,-3.64,0.7,4.87
8.553794145584106,-3.65,-3.1,1.02,4.89
8.573697090148926,-3.9,-2.62,1.15,4.83
8.575669050216675,-4.11,-2.18,1.18,4.79
8.583576917648315,-4.16,-1.66,1.31,4.66
8.59362506866455,-3.93,-1.13,1.31,4.29
8.603682041168213,-3.48,-0.61,1.26,3.75
8.613785028457642,-2.84,0.01,1.21,3.08
8.623539209365845,-2.16,0.8,0.88,2.46
8.634226083755493,-1.29,1.77,0.36,2.21
8.643657922744751,-0.51,2.75,-0.38,2.82
8.654210090637207,-0.05,3.6,-1.32,3.83
8.676671028137207,-0.07,4.24,-2.22,4.78
8.678677082061768,-0.33,4.56,-2.75,5.33
8.683128118515015,-0.71,4.59,-2.56,5.3
8.693359136581421,-0.72,4.36,-1.81,4.77
8.703200101852417,-0.14,4.08,-0.76,4.15
8.71321702003479,0.59,3.93,0.22,3.98
8.72340202331543,1.32,4.04,0.91,4.34
8.733935117721558,2.18,4.34,1.06,4.97
8.743314027786255,3.39,4.71,0.45,5.82
8.753781080245972,4.64,5.12,-0.61,6.93
8.7759370803833,5.29,5.64,-1.84,7.94
8.778014898300171,5.49,6.3,-3.02,8.88
8.782904863357544,5.58,6.69,-3.88,9.53
8.792802095413208,5.78,6.67,-4.21,9.77
8.803060054779053,5.93,6.5,-3.79,9.58
8.812910079956055,5.95,6.44,-2.76,9.19
8.822726964950562,5.95,6.26,-1.92,8.84
8.83272385597229,6.33,5.75,-1.36,8.65
8.843592882156372,7.39,4.33,-1.2,8.64
8.853440999984741,8.49,3.04,-0.98,9.07
8.8731849193573,8.86,3.61,-0.73,9.59
8.875236988067627,9.01,4.95,-0.98,10.32
8.882526159286499,9.15,5.84,-1.87,11.01
8.892477035522461,8.99,6.46,-3.01,11.47
8.902971029281616,8.51,7.34,-4.06,11.94
8.912535905838013,7.94,7.46,-4.8,11.9
8.922526121139526,7.77,6.41,-4.27,10.94
8.932443857192993,7.59,5.23,-2.5,9.55
8.942314863204956,6.93,4.14,-0.72,8.1
8.952362060546875,6.25,3.24,0.56,7.06
8.972357988357544,5.72,2.64,1.18,6.4
8.974264860153198,5.4,2.16,1.28,5.95
8.98232388496399,5.18,1.89,1.09,5.62
8.99226689338684,4.8,1.89,0.9,5.23
9.002204179763794,4.31,2.01,0.79,4.82
9.012171030044556,3.6,2.12,0.7,4.23
9.022104978561401,2.65,2.17,0.67,3.49
9.032836198806763,1.63,2.11,0.72,2.76
9.04198408126831,0.74,1.96,0.82,2.24
9.052685976028442,-0.06,1.77,1.03,2.04
9.075411081314087,-0.74,1.5,1.39,2.17
9.077414989471436,-1.31,1.16,1.67,2.41
9.081701040267944,-1.82,0.75,1.93,2.75
9.091750860214233,-2.25,0.33,2.12,3.1
9.10198187828064,-2.6,-0.09,2.25,3.43
9.111818075180054,-2.94,-0.58,2.32,3.78
9.121774911880493,-3.18,-0.97,2.37,4.08
9.131759881973267,-3.34,-1.32,2.32,4.27
9.14244294166565,-3.45,-1.67,2.27,4.45
9.152537107467651,-3.44,-2.02,2.24,4.57
9.171454191207886,-3.42,-2.41,2.16,4.7
9.173521995544434,-3.4,-2.87,2.1,4.92
9.181391954421997,-3.33,-3.39,2.0,5.15
9.1913321018219,-3.15,-4.02,1.94,5.46
9.201520204544067,-2.89,-4.73,1.95,5.87
9.211644887924194,-2.61,-5.47,2.0,6.38
9.221431016921997,-2.37,-6.08,2.19,6.88
9.23131012916565,-1.97,-6.5,2.42,7.21
9.24121904373169,-1.26,-6.73,2.58,7.31
9.251546144485474,-0.57,-6.78,2.69,7.31
9.27130389213562,-0.31,-6.67,2.74,7.21
9.273253202438354,-0.3,-6.55,2.67,7.07
9.281032085418701,-0.23,-6.52,2.59,7.01
9.291109085083008,-0.07,-6.54,2.59,7.03
9.301162958145142,0.1,-6.7,2.65,7.2
9.31096601486206,0.06,-6.86,2.74,7.38
9.321305990219116,-0.08,-7.01,2.84,7.56
9.331990957260132,0.32,-7.79,2.85,8.3
9.341301202774048,0.9,-9.24,2.35,9.57
9.351516962051392,1.05,-10.55,1.85,10.76
9.372766017913818,0.39,-10.79,1.87,10.95
9.374858140945435,-0.58,-9.81,2.35,10.1
9.380637884140015,-1.04,-8.58,2.94,9.12
9.390601873397827,-1.15,-7.86,3.45,8.66
9.40085506439209,-1.07,-7.54,3.56,8.4
9.410698175430298,-0.83,-7.58,3.29,8.3
9.420700073242188,-0.51,-7.71,2.92,8.26
9.431514978408813,0.02,-7.83,2.55,8.23
9.440896987915039,0.31,-7.78,2.09,8.06
9.451164960861206,0.26,-7.7,1.74,7.89
9.473098039627075,-0.06,-7.4,1.5,7.55
9.475219011306763,-0.53,-6.78,1.21,6.9
9.480261087417603,-0.97,-6.07,0.93,6.21
9.49023985862732,-1.34,-5.19,0.63,5.39
9.500527143478394,-1.58,-4.27,0.33,4.56
9.510256052017212,-1.87,-3.4,0.0,3.88
9.520300149917603,-2.24,-2.74,-0.19,3.54
9.53031611442566,-2.48,-2.22,-0.33,3.34
9.54027009010315,-2.74,-1.81,-0.47,3.31
9.55016803741455,-2.99,-1.45,-0.43,3.35
9.571184873580933,-3.13,-1.05,-0.36,3.32
9.573167085647583,-3.25,-0.68,-0.36,3.33
9.579927206039429,-3.32,-0.37,-0.32,3.35
9.589951038360596,-3.25,-0.05,-0.39,3.27
9.600162982940674,-2.99,0.2,-0.43,3.02
9.609941005706787,-2.57,0.48,-0.42,2.64
9.619922876358032,-2.06,0.82,-0.32,2.24
9.629930973052979,-1.51,1.16,-0.17,1.91
9.639919996261597,-1.01,1.61,-0.14,1.9
9.650731086730957,-0.4,2.05,-0.28,2.1
9.670058012008667,0.35,2.36,-0.58,2.45
9.67197299003601,1.12,2.48,-1.01,2.9
9.679501056671143,1.79,2.68,-1.4,3.51
9.689646005630493,2.4,2.76,-1.68,4.02
9.6997811794281,3.11,2.78,-1.75,4.52
9.709692001342773,3.97,2.84,-1.47,5.09
9.719634056091309,4.95,3.13,-1.09,5.95
9.730382204055786,6.01,3.55,-0.83,7.02
9.739813089370728,7.08,4.12,-0.7,8.22
9.750195980072021,7.87,4.86,-0.62,9.27
9.772885084152222,8.43,5.73,-0.64,10.21
9.774838209152222,8.77,6.4,-0.89,10.89
9.779078006744385,9.03,6.7,-1.2,11.3
9.789367914199829,9.13,6.72,-1.44,11.42
9.799400091171265,8.94,6.69,-1.49,11.26
9.809238195419312,8.61,6.72,-1.49,11.02
9.819257974624634,8.36,6.61,-1.29,10.73
9.830413103103638,8.67,5.69,-1.07,10.42
9.839425086975098,9.4,4.03,-0.56,10.24
9.84977102279663,9.81,3.32,0.12,10.35
9.872860193252563,9.9,3.97,0.51,10.67
9.875004053115845,9.96,5.09,0.17,11.18
9.878728151321411,9.89,5.69,-0.97,11.45
9.889020204544067,9.38,6.15,-2.29,11.44
9.899027109146118,8.53,6.19,-3.12,10.99
9.909024953842163,7.85,5.44,-3.18,10.06
9.91907286643982,7.54,4.13,-2.32,8.9
9.928890943527222,7.38,3.0,-0.82,8.0
9.939637899398804,7.28,2.32,0.35,7.64
9.949436902999878,7.06,1.83,0.82,7.33
9.970692873001099,6.57,1.59,0.84,6.81
9.972692012786865,5.85,1.65,0.64,6.11
9.978409051895142,5.12,1.8,0.38,5.44
9.988481044769287,4.4,2.0,0.28,4.84
9.998589992523193,3.7,2.16,0.26,4.29
10.008405923843384,3.03,2.24,0.28,3.77
10.018502950668335,2.31,2.25,0.43,3.25
10.028411149978638,1.59,2.28,0.74,2.87
10.03848385810852,0.84,2.27,1.17,2.68
10.049300909042358,0.15,2.11,1.45,2.56
10.069005012512207,-0.45,1.87,1.73,2.58
10.071022033691406,-0.96,1.62,1.9,2.67
10.07801103591919,-1.45,1.4,1.95,2.8
10.088069200515747,-1.87,1.14,1.85,2.86
10.098237991333008,-2.15,0.83,1.65,2.83
10.108340978622437,-2.39,0.46,1.51,2.86
10.118136167526245,-2.58,0.1,1.49,2.98
10.128060102462769,-2.72,-0.23,1.67,3.2
10.13801908493042,-2.64,-0.57,1.91,3.3
10.148024082183838,-2.48,-0.99,2.1,3.39
10.170337915420532,-2.29,-1.53,2.18,3.51
10.172269105911255,-1.97,-2.14,2.46,3.8
10.17778992652893,-1.67,-2.71,2.67,4.15
10.187952995300293,-1.32,-3.46,2.75,4.61
10.198024988174438,-0.91,-4.18,2.81,5.11
10.207855939865112,-0.4,-4.77,2.69,5.49
10.217796087265015,0.19,-5.27,2.47,5.82
10.228718996047974,0.78,-5.61,2.2,6.07
10.238379001617432,1.21,-5.88,1.89,6.29
10.248471975326538,1.59,-6.29,1.66,6.69
10.270111083984375,1.78,-6.56,1.52,6.96
10.272144079208374,1.63,-6.74,1.54,7.1
10.277419090270996,1.24,-7.02,1.67,7.32
10.28747820854187,0.67,-7.43,1.92,7.7
10.297784090042114,-0.16,-7.65,2.25,7.97
10.3074791431427,-1.19,-7.46,2.62,7.99
10.317457914352417,-2.12,-7.19,2.82,8.0
10.327524900436401,-2.47,-6.99,2.81,7.92
10.338141202926636,-1.99,-7.48,2.27,8.06
10.348098993301392,-1.0,-8.69,1.23,8.83
10.370014905929565,-0.81,-9.18,0.1,9.21
10.372144937515259,-1.49,-8.79,-0.77,8.94
10.377053022384644,-2.27,-8.03,-0.89,8.39
10.386966943740845,-2.08,-8.29,-0.47,8.55
10.397144079208374,-1.68,-9.53,-0.23,9.67
10.407005071640015,-2.06,-10.09,0.12,10.29
10.417087078094482,-2.87,-9.77,0.63,10.2
10.426948070526123,-3.23,-9.0,1.44,9.66
10.436937093734741,-2.76,-8.34,2.26,9.07
10.446944952011108,-2.14,-7.9,2.72,8.62
10.467779874801636,-1.67,-7.42,2.79,8.1
10.469691038131714,-1.44,-6.88,2.34,7.4
10.476651906967163,-1.45,-6.39,1.53,6.72
10.487006902694702,-1.47,-5.92,0.94,6.17
10.496515035629272,-1.59,-5.41,0.48,5.65
10.506786108016968,-1.74,-4.93,0.3,5.23
10.51672911643982,-2.1,-4.52,0.3,4.99
10.526623964309692,-2.49,-4.24,0.31,4.92
10.536623001098633,-2.78,-3.92,0.32,4.81
10.546635866165161,-3.03,-3.48,0.12,4.61
10.566689014434814,-3.13,-2.98,-0.14,4.32
10.56862187385559,-3.2,-2.47,-0.37,4.05
10.576441049575806,-3.22,-2.04,-0.63,3.86
10.586293935775757,-3.26,-1.6,-0.86,3.73
10.596426010131836,-3.4,-1.29,-1.04,3.78
10.606535196304321,-3.42,-0.99,-1.04,3.7
10.616406202316284,-3.21,-0.72,-1.08,3.46
10.626293897628784,-2.8,-0.5,-1.06,3.03
10.637408971786499,-2.37,-0.27,-0.8,2.51
10.646753072738647,-1.74,-0.08,-0.6,1.84
10.668689012527466,-1.33,0.31,-0.4,1.42
10.670729875564575,-0.95,0.46,-0.28,1.09
10.675917863845825,-0.34,0.33,-0.35,0.58
10.686250925064087,0.02,0.35,-0.28,0.44
10.695978879928589,0.45,0.31,-0.12,0.55
10.706068992614746,1.37,0.26,0.06,1.39
10.71594786643982,2.18,0.48,0.2,2.24
10.726485967636108,3.24,0.78,0.2,3.33
10.736708879470825,4.2,1.11,0.01,4.34
10.746875047683716,4.83,1.62,-0.16,5.09
10.767332077026367,5.25,2.32,-0.08,5.74
10.769315958023071,5.68,3.03,-0.19,6.44
10.775799036026001,6.32,3.59,-0.51,7.28
10.785871028900146,6.96,4.02,-0.8,8.07
10.795682191848755,7.27,4.62,-0.98,8.66
10.805721998214722,7.3,5.34,-1.13,9.11
10.815552949905396,7.05,5.82,-1.13,9.21
10.825674057006836,7.13,5.48,-0.99,9.04
10.835551977157593,7.98,3.82,-0.74,8.87
10.845450162887573,8.51,2.41,0.03,8.84
10.86649489402771,8.22,2.83,1.01,8.75
10.86844515800476,8.41,3.68,1.14,9.25
10.875243902206421,8.97,4.46,0.26,10.02
10.885066986083984,9.56,5.3,-1.15,10.99
10.895210027694702,9.81,5.88,-2.83,11.78
10.905164957046509,9.36,5.84,-3.69,11.63
10.915208101272583,8.67,5.58,-3.15,10.78
10.925127983093262,8.08,5.46,-1.85,9.92
10.935049057006836,7.68,5.39,-0.54,9.39
10.945049047470093,7.28,5.04,0.21,8.85
10.965736150741577,6.62,4.75,0.67,8.17
10.967703104019165,5.73,4.76,1.0,7.51
10.97481107711792,4.91,4.94,1.19,7.06
10.984874963760376,4.4,5.13,1.21,6.86
10.995006084442139,4.03,5.35,1.01,6.77
11.004908084869385,3.72,5.52,0.58,6.68
11.01484203338623,3.3,5.66,0.0,6.55
11.024853944778442,2.73,5.88,-0.55,6.5
11.035579919815063,1.94,6.04,-1.22,6.46
11.045070886611938,0.96,5.92,-1.83,6.27
11.068135976791382,0.02,5.56,-2.23,5.99
11.070234060287476,-0.91,5.2,-2.42,5.8
11.074540853500366,-1.68,5.03,-2.29,5.77
11.084564924240112,-2.27,4.93,-2.07,5.8
11.094742059707642,-2.59,4.78,-1.83,5.73
11.104574918746948,-2.77,4.57,-1.41,5.52
11.11461091041565,-2.87,4.35,-0.92,5.29
11.124490022659302,-2.91,3.95,-0.41,4.92
11.13447117805481,-2.88,3.32,0.18,4.39
11.144302129745483,-2.74,2.7,0.85,3.93
11.165942907333374,-2.33,1.99,1.26,3.31
11.167818069458008,-1.57,1.23,1.49,2.48
11.174218893051147,-0.93,0.38,1.5,1.8
11.184086084365845,-0.35,-0.66,1.35,1.54
11.194459199905396,0.34,-1.93,1.3,2.35
11.204171895980835,1.19,-3.02,1.54,3.59
11.214169979095459,2.04,-3.87,1.87,4.75
11.22514796257019,2.88,-4.43,2.33,5.77
11.23481011390686,3.47,-4.66,2.7,6.4
11.244266986846924,3.78,-4.8,2.78,6.71
11.266822099685669,3.89,-4.82,2.69,6.75
11.268868207931519,3.66,-4.81,2.65,6.59
11.273802042007446,3.41,-5.29,2.77,6.87
11.28373408317566,3.58,-6.64,2.79,8.04
11.293864965438843,4.92,-9.47,2.66,10.99
11.303746938705444,6.31,-12.18,2.52,13.94
11.313750982284546,6.13,-13.01,2.52,14.6
11.323757886886597,5.14,-13.21,2.65,14.42
11.334330081939697,3.08,-11.13,3.2,11.98
11.344504117965698,1.07,-9.14,3.9,9.99
11.364160060882568,-0.42,-9.08,3.88,9.88
11.36620306968689,-1.96,-8.74,4.06,9.83
11.373544931411743,-2.98,-8.23,4.23,9.72
11.383620977401733,-3.02,-8.1,4.09,9.56
11.39365005493164,-1.83,-8.73,3.24,9.48
11.403513193130493,-0.85,-9.27,1.8,9.48
11.413357019424438,-0.5,-9.51,0.27,9.52
11.423474073410034,-0.81,-9.39,-0.98,9.47
11.433397054672241,-1.72,-8.91,-1.56,9.2
11.443289995193481,-2.95,-8.2,-1.36,8.81
11.46368408203125,-4.1,-7.19,-0.72,8.3
11.465551137924194,-5.0,-6.5,-0.35,8.2
11.473083972930908,-5.65,-6.03,-0.13,8.26
11.482953071594238,-6.08,-5.69,-0.03,8.32
11.493287086486816,-6.47,-5.33,0.03,8.38
11.503117084503174,-6.93,-5.01,0.14,8.55
11.51293396949768,-7.26,-4.74,0.21,8.67
11.523122072219849,-7.43,-4.39,0.23,8.63
11.533849000930786,-7.32,-4.06,0.37,8.37
11.543138980865479,-7.17,-3.66,0.59,8.07
11.566459894180298,-6.91,-3.12,0.81,7.62
11.568510055541992,-6.24,-2.66,0.97,6.85
11.572741985321045,-5.4,-2.25,1.03,5.93
11.582720041275024,-4.65,-1.77,0.94,5.06
11.592833995819092,-4.13,-1.32,0.67,4.38
11.602790117263794,-3.78,-0.96,0.17,3.9
11.61263918876648,-3.65,-0.51,-0.32,3.69
11.622744083404541,-3.43,0.05,-0.9,3.54
11.63356614112854,-3.05,0.7,-1.6,3.51
11.643118143081665,-2.46,1.33,-2.13,3.51
11.666812181472778,-1.34,1.61,-2.38,3.17
11.668828010559082,0.03,1.59,-2.18,2.69
11.672471046447754,1.46,1.65,-1.12,2.47
11.682646989822388,2.8,1.85,0.04,3.35
11.69242000579834,3.75,2.42,0.92,4.55
11.702440977096558,4.38,3.51,1.1,5.71
11.7123281955719,5.0,4.69,0.36,6.86
11.722471952438354,6.01,5.83,-0.84,8.41
11.732311010360718,7.37,6.91,-2.05,10.3
11.742275953292847,8.77,7.8,-3.0,12.11
11.76288390159607,10.01,8.48,-3.54,13.58
11.765291929244995,10.87,9.06,-3.62,14.6
11.772217035293579,11.07,9.56,-3.44,15.02
11.782203912734985,11.15,9.46,-3.15,14.95
11.792038202285767,12.09,7.89,-2.74,14.69
11.80211615562439,13.21,5.5,-2.06,14.45
11.812000036239624,13.15,5.02,-1.45,14.15
11.822009086608887,12.38,5.79,-1.09,13.71
11.832010984420776,11.54,6.15,-0.96,13.11
11.841872930526733,10.84,5.94,-1.05,12.4
11.862056016921997,10.43,5.25,-0.8,11.7
11.863967180252075,10.29,4.46,-0.16,11.21
11.872027158737183,10.34,3.85,0.5,11.04
11.881597995758057,10.22,3.48,0.85,10.82
11.891547918319702,9.85,3.1,0.88,10.36
11.901735067367554,9.14,2.54,0.88,9.52
11.911657094955444,8.2,1.99,1.08,8.5
11.921695947647095,7.18,1.47,1.53,7.48
11.932352066040039,6.1,1.18,1.97,6.51
11.942371129989624,5.01,1.06,2.23,5.58
11.963267087936401,3.84,1.04,2.29,4.59
11.965269088745117,2.56,1.07,2.19,3.53
11.971426010131836,1.31,1.0,1.93,2.53
11.981276035308838,0.19,0.9,1.69,1.92
11.991431951522827,-0.69,0.69,1.52,1.8
12.001358032226562,-1.41,0.38,1.37,2.0
12.01149606704712,-2.03,0.11,1.3,2.41
12.021296977996826,-2.54,-0.15,1.21,2.81
12.03230595588684,-2.97,-0.41,1.08,3.18
12.041478872299194,-3.38,-0.67,0.96,3.57
12.066245079040527,-3.72,-0.99,0.9,3.95
12.068256139755249,-3.94,-1.37,0.93,4.27
12.070915937423706,-4.07,-1.76,0.93,4.53
12.080895185470581,-4.21,-2.06,0.78,4.75
12.090733051300049,-4.56,-2.39,0.59,5.18
12.101022005081177,-5.04,-2.81,0.32,5.77
12.110903024673462,-5.41,-3.39,-0.09,6.38
12.120930910110474,-5.44,-4.04,-0.37,6.78
12.130817174911499,-4.89,-4.48,-0.24,6.63
12.14091420173645,-3.7,-4.89,0.18,6.13
12.161089181900024,-2.33,-5.44,0.6,5.94
12.162964105606079,-1.23,-5.91,0.76,6.08
12.170687913894653,-0.5,-6.24,0.86,6.31
12.180641889572144,-0.15,-6.21,0.95,6.28
12.190694093704224,0.02,-5.97,1.01,6.05
12.200916051864624,0.12,-5.83,1.05,5.92
12.210536003112793,0.13,-5.86,1.18,5.97
12.220609903335571,-0.11,-6.0,1.37,6.15
12.230534076690674,-0.64,-6.02,1.71,6.29
12.240454912185669,-1.13,-6.07,2.09,6.51
12.261260032653809,-1.02,-6.73,2.3,7.18
12.26310420036316,-0.15,-8.37,1.92,8.58
12.270317077636719,0.72,-10.03,1.14,10.12
12.280266046524048,0.94,-11.01,0.52,11.06
12.290350198745728,0.33,-10.55,0.39,10.56
12.300319910049438,-0.63,-9.19,0.92,9.25
12.310394048690796,-1.24,-8.27,1.74,8.54
12.320245027542114,-1.47,-8.35,2.23,8.76
12.330911874771118,-1.68,-8.83,2.44,9.31
12.341551065444946,-1.81,-9.26,2.56,9.77
12.36184811592102,-1.71,-9.46,2.64,9.96
12.363767862319946,-1.59,-9.51,2.44,9.94
12.3698890209198,-1.32,-9.6,2.17,9.93
12.379841089248657,-1.09,-9.41,1.87,9.65
12.390230894088745,-0.96,-8.89,1.43,9.05
12.399999856948853,-0.86,-8.26,1.02,8.36
12.409766912460327,-0.69,-7.48,0.68,7.54
12.419891119003296,-0.47,-6.59,0.38,6.61
12.430979013442993,-0.36,-5.82,0.21,5.83
12.440498113632202,-0.56,-5.05,0.07,5.08
12.462165117263794,-1.15,-4.36,-0.01,4.5
12.464160203933716,-1.91,-3.9,-0.14,4.34
12.46960711479187,-2.37,-3.64,-0.22,4.34
12.479466199874878,-2.54,-3.39,-0.2,4.24
12.489654064178467,-2.94,-2.84,-0.06,4.08
12.49960207939148,-3.22,-2.29,0.02,3.95
12.509411096572876,-3.05,-1.77,0.0,3.52
12.51943302154541,-2.77,-1.19,-0.25,3.02
12.52936601638794,-2.33,-0.63,-0.46,2.45
12.539452075958252,-1.8,-0.1,-0.59,1.89
12.560282945632935,-1.2,0.4,-0.58,1.39
12.562238931655884,-0.69,0.93,-0.36,1.21
12.569231033325195,0.06,1.4,0.01,1.4
12.579070091247559,0.82,1.94,0.34,2.13
12.589318990707397,1.27,2.48,0.56,2.84
12.59936785697937,1.63,2.88,0.59,3.36
12.609192132949829,2.1,3.24,0.3,3.87
12.619163990020752,2.5,3.43,0.01,4.24
12.630071878433228,3.13,3.63,-0.15,4.79
12.639631032943726,4.16,3.81,-0.21,5.64
12.661346197128296,5.08,4.05,-0.07,6.49
12.663256883621216,5.65,4.32,0.12,7.11
12.668935060501099,6.0,4.69,0.21,7.61
12.678756952285767,6.35,5.17,0.12,8.18
12.688923120498657,6.81,5.65,-0.15,8.84
12.698745965957642,6.98,6.3,-0.52,9.41
12.708801031112671,7.25,6.8,-0.96,9.98
12.718816995620728,7.56,7.04,-1.39,10.42
12.729680061340332,7.73,7.23,-1.59,10.7
12.73918604850769,8.12,7.32,-1.63,11.05
12.760987043380737,9.15,6.76,-1.61,11.48
12.762991189956665,10.74,4.82,-1.31,11.84
12.768446207046509,12.06,3.41,-0.72,12.55
12.778311014175415,12.57,4.25,-0.29,13.27
12.788528203964233,12.38,5.93,-0.76,13.74
12.798549890518188,11.87,6.93,-1.92,13.87
12.808610200881958,11.38,7.66,-3.4,14.13
12.818417072296143,10.3,7.84,-4.79,13.8
12.828314065933228,8.9,7.2,-5.4,12.65
12.839021921157837,7.73,5.65,-5.08,10.83
12.86208987236023,6.76,3.74,-3.43,8.45
12.864005088806152,5.71,2.63,-1.46,6.45
12.86804986000061,4.61,1.99,-0.09,5.02
12.878071069717407,3.77,1.49,1.17,4.21
12.887937068939209,2.88,1.59,2.32,4.02
12.898171186447144,1.9,2.04,2.35,3.64
12.908004999160767,1.46,2.24,1.26,2.95
12.918078184127808,1.47,2.2,-0.19,2.65
12.927944898605347,1.36,2.33,-1.24,2.96
12.937936067581177,1.03,2.48,-1.78,3.22
12.958575010299683,0.55,2.61,-1.94,3.29
12.960501909255981,-0.04,2.78,-1.76,3.29
12.967652082443237,-0.63,2.76,-1.49,3.19
12.977573156356812,-1.12,2.73,-1.21,3.18
12.98771595954895,-1.48,2.7,-0.9,3.2
12.997756004333496,-1.53,2.65,-0.53,3.1
13.007590055465698,-1.37,2.52,-0.07,2.86
13.017714977264404,-1.1,2.27,0.36,2.54
13.028404951095581,-0.93,2.05,0.74,2.36
13.038259983062744,-0.83,1.77,1.07,2.22
13.060204982757568,-0.68,1.33,1.27,1.96
13.062304019927979,-0.61,0.88,1.37,1.73
13.06734585762024,-0.77,0.43,1.41,1.66
13.077291011810303,-0.89,-0.14,1.43,1.69
13.087568998336792,-0.79,-0.84,1.72,2.07
13.097331047058105,-0.69,-1.51,1.96,2.56
13.107326984405518,-0.6,-2.26,2.08,3.12
13.117358922958374,-0.31,-3.13,2.16,3.81
13.127835988998413,0.01,-3.83,2.34,4.48
13.138046026229858,0.37,-4.38,2.46,5.03
13.160693883895874,0.83,-4.95,2.44,5.58
13.16257905960083,1.2,-5.41,2.32,6.0
13.167129039764404,1.35,-5.75,2.08,6.26
13.177211046218872,1.3,-5.96,1.88,6.38
13.186835050582886,1.06,-5.99,1.75,6.32
13.19707202911377,0.93,-6.01,1.67,6.3
13.207082986831665,0.81,-6.14,1.73,6.43
13.216938018798828,0.61,-6.28,1.88,6.58
13.226993083953857,0.54,-6.43,2.03,6.76
13.237642049789429,1.19,-7.42,2.05,7.78
13.259703874588013,2.58,-9.52,1.83,10.03
13.26178503036499,3.32,-11.23,1.56,11.81
13.266721963882446,2.85,-11.41,1.52,11.85
13.276607990264893,1.39,-9.88,2.0,10.17
13.286756038665771,-0.26,-7.89,2.63,8.32
13.296562910079956,-0.99,-6.75,3.02,7.46
13.306686162948608,-1.03,-6.68,3.06,7.41
13.316663026809692,-0.74,-7.38,2.95,7.98
13.326738119125366,-0.76,-7.61,2.73,8.12
13.33659291267395,-0.98,-7.67,2.63,8.16
13.357575178146362,-1.21,-7.93,2.36,8.36
13.359466075897217,-1.47,-8.2,1.98,8.56
13.366404056549072,-1.74,-8.3,1.56,8.62
13.376329183578491,-2.07,-8.11,1.1,8.44
13.386399030685425,-2.47,-7.58,0.82,8.01
13.39646315574646,-2.87,-6.86,0.6,7.46
13.406214952468872,-3.27,-6.01,0.43,6.85
13.416198015213013,-3.6,-5.17,0.24,6.3
13.426066160202026,-3.84,-4.47,0.01,5.89
13.437056064605713,-4.11,-3.88,-0.04,5.65
13.459601163864136,-4.51,-3.35,-0.08,5.61
13.461588144302368,-4.8,-2.99,-0.07,5.65
13.465784072875977,-4.88,-2.63,-0.01,5.54
13.47590708732605,-4.94,-2.31,0.02,5.45
13.485949993133545,-4.95,-2.11,0.04,5.38
13.495885133743286,-4.94,-1.78,0.12,5.25
13.505989074707031,-4.73,-1.43,0.13,4.94
13.51584005355835,-4.29,-1.15,0.12,4.44
13.526549100875854,-4.0,-0.84,0.11,4.08
13.5365149974823,-3.69,-0.48,0.24,3.72
13.560074090957642,-3.43,-0.17,0.32,3.44
13.562103033065796,-3.28,-0.03,0.33,3.29
13.565643072128296,-3.06,-0.02,0.36,3.08
13.575429201126099,-2.66,0.01,0.46,2.69
13.586006879806519,-2.11,0.07,0.53,2.17
13.595571994781494,-1.49,0.16,0.42,1.55
13.605581998825073,-0.62,0.3,0.11,0.69
13.615602016448975,0.36,0.55,-0.32,0.73
13.626365900039673,1.46,0.71,-0.59,1.72
13.636153936386108,2.4,0.82,-0.89,2.68
13.659403085708618,3.13,0.99,-1.16,3.48
13.661403894424438,3.82,1.19,-1.4,4.23
13.665271997451782,4.53,1.52,-1.63,5.04
13.67524003982544,5.18,2.02,-1.9,5.87
13.685252904891968,5.86,2.37,-2.25,6.7
13.695250034332275,6.53,2.58,-2.42,7.42
13.705281972885132,6.79,3.11,-2.61,7.91
13.71518588066101,6.9,3.74,-2.8,8.33
13.725892066955566,7.19,4.19,-2.73,8.75
13.736029863357544,7.6,4.22,-2.49,9.04
13.757657051086426,8.67,3.06,-2.01,9.41
13.759753942489624,9.86,1.68,-1.34,10.09
13.76491904258728,10.33,1.83,-0.73,10.51
13.774935960769653,10.35,3.15,-0.59,10.83
13.784728050231934,10.06,4.38,-1.01,11.01
13.79475712776184,9.44,5.15,-2.08,10.95
13.804857969284058,8.69,5.61,-2.92,10.74
13.81479287147522,7.96,5.47,-2.73,10.03
13.824710130691528,7.41,5.13,-1.73,9.17
13.834750890731812,6.98,4.88,-0.5,8.53
13.856731176376343,6.53,4.9,0.13,8.16
13.858664989471436,5.92,5.07,-0.03,7.79
13.864487886428833,5.19,5.07,-0.41,7.26
13.874494075775146,4.58,4.98,-0.54,6.78
13.884772062301636,4.06,4.87,-0.21,6.34
13.894470930099487,3.57,4.66,0.25,5.87
13.904567003250122,3.13,4.38,0.5,5.4
13.914453029632568,2.7,4.15,0.57,4.98
13.925153970718384,2.32,4.04,0.47,4.68
13.935031175613403,2.01,3.96,0.22,4.44
13.957605123519897,1.75,3.96,-0.11,4.33
13.959666013717651,1.44,4.0,-0.29,4.26
13.964132070541382,1.09,4.04,-0.44,4.2
13.974159002304077,0.95,3.93,-0.6,4.08
13.984204053878784,0.83,3.74,-0.59,3.87
13.994181871414185,0.43,3.58,-0.39,3.62
14.004077196121216,-0.04,3.27,-0.18,3.27
14.014065980911255,-0.43,2.88,-0.04,2.91
14.024095058441162,-0.75,2.45,0.08,2.56
14.03420090675354,-1.19,2.03,0.28,2.36
14.056900024414062,-1.68,1.61,0.49,2.37
14.058837175369263,-2.02,1.12,0.64,2.39
14.063707113265991,-2.23,0.66,0.74,2.44
14.074060201644897,-2.33,0.23,0.89,2.5
14.083564043045044,-2.32,-0.18,1.03,2.54
14.093711137771606,-2.04,-0.7,1.06,2.4
14.103782892227173,-1.67,-1.25,0.98,2.3
14.113651990890503,-1.36,-1.83,0.92,2.45
14.123759031295776,-0.99,-2.5,0.81,2.8
14.133707046508789,-0.64,-3.19,0.65,3.31
14.154890060424805,-0.28,-3.8,0.53,3.84
14.15676999092102,0.09,-4.31,0.37,4.32
14.163511037826538,0.4,-4.6,0.24,4.62
14.173446893692017,0.75,-4.74,0.24,4.8
14.183602094650269,1.09,-4.84,0.21,4.96
14.193843126296997,1.44,-4.96,0.25,5.17
14.203456163406372,1.61,-5.1,0.36,5.36
14.213226079940796,1.43,-5.2,0.64,5.43
14.224416971206665,1.11,-5.29,1.11,5.51
14.23402714729309,1.37,-6.08,1.5,6.41
14.256932020187378,2.31,-7.81,1.62,8.3
14.258972883224487,2.89,-9.37,1.52,9.92
14.262959003448486,3.11,-9.98,1.74,10.59
14.273033857345581,2.68,-9.4,2.15,10.0
14.283136129379272,1.56,-8.01,2.71,8.59
14.293045043945312,0.48,-6.88,3.24,7.61
14.303065061569214,-0.05,-6.63,3.71,7.59
14.312894105911255,-0.48,-6.75,4.18,7.95
14.323691129684448,-1.13,-7.06,4.4,8.39
14.333563089370728,-1.62,-7.52,4.44,8.88
14.354538202285767,-1.9,-8.14,4.34,9.41
14.356529951095581,-2.22,-8.59,3.95,9.71
14.36266803741455,-2.59,-8.83,3.37,9.79
14.372847080230713,-3.07,-8.68,2.73,9.6
14.382575988769531,-3.49,-8.16,2.14,9.12
14.392664194107056,-3.78,-7.52,1.65,8.57
14.402712106704712,-4.12,-6.7,1.28,7.96
14.41257905960083,-4.42,-5.75,1.08,7.33
14.422627210617065,-4.59,-4.87,0.91,6.75
14.433304071426392,-4.7,-4.12,0.75,6.29
14.457101106643677,-4.76,-3.48,0.51,5.91
14.459259986877441,-4.83,-2.85,0.32,5.61
14.462332963943481,-4.88,-2.28,0.2,5.39
14.472285985946655,-4.78,-1.78,0.06,5.1
14.482134103775024,-4.6,-1.27,0.06,4.77
14.492496013641357,-4.43,-0.83,0.1,4.5
14.502413034439087,-4.16,-0.52,0.11,4.19
14.51221489906311,-3.93,-0.19,0.12,3.93
14.522297143936157,-3.78,0.14,0.12,3.78
14.532155990600586,-3.55,0.38,0.13,3.57
14.554561853408813,-3.23,0.56,0.12,3.28
14.556463956832886,-2.94,0.73,0.1,3.03
14.561843156814575,-2.65,0.91,0.08,2.8
14.57201099395752,-2.33,1.01,0.01,2.53
14.581816911697388,-1.97,1.06,0.03,2.23
14.592051982879639,-1.55,1.17,0.06,1.94
14.60198187828064,-0.91,1.18,0.14,1.49
14.611836194992065,-0.39,1.27,0.21,1.34
14.621917963027954,0.18,1.34,0.22,1.36
14.63211703300476,0.94,1.33,0.12,1.63
14.654266119003296,1.84,1.17,-0.2,2.18
14.656160116195679,2.75,1.08,-0.31,2.97
14.661627054214478,3.77,1.38,-0.11,4.01
14.671658039093018,4.76,1.89,-0.28,5.12
14.68172001838684,6.01,2.07,-0.75,6.4
14.691663026809692,7.34,2.19,-1.19,7.75
14.701603174209595,8.5,2.62,-1.72,9.05
14.711477041244507,9.65,3.4,-2.26,10.47
14.722472906112671,10.45,4.48,-3.22,11.81
14.732341051101685,11.01,5.11,-4.67,13.0
14.754338026046753,11.57,5.19,-6.01,14.03
14.756402015686035,12.0,4.35,-6.55,14.34
14.76149296760559,12.04,2.64,-6.03,13.72
14.771135091781616,11.17,2.13,-4.69,12.3
14.781359910964966,9.73,3.01,-4.04,10.95
14.791374921798706,8.73,3.99,-4.45,10.57
14.80120301246643,7.94,4.59,-5.76,10.83
14.81116008758545,7.16,4.9,-6.87,11.06
14.82193398475647,6.56,4.68,-6.84,10.56
14.83219599723816,6.24,4.0,-5.92,9.48
14.854767084121704,5.82,3.32,-4.72,8.19
14.856755018234253,5.25,2.91,-3.75,7.07
14.860889196395874,4.7,2.75,-3.29,6.36
14.870919942855835,4.31,2.73,-3.18,6.01
14.88078498840332,4.04,2.72,-3.18,5.81
14.890939950942993,3.79,2.81,-3.04,5.61
14.900892972946167,3.59,2.87,-2.7,5.33
14.911046981811523,3.49,2.87,-2.21,5.03
14.920860052108765,3.42,2.85,-1.71,4.76
14.930609941482544,3.1,2.88,-1.28,4.42
14.952010869979858,2.55,2.9,-0.99,3.98
14.953904867172241,1.9,2.86,-0.84,3.53
14.960540056228638,1.28,2.75,-0.65,3.1
14.970547914505005,0.85,2.55,-0.4,2.71
14.980279207229614,0.49,2.33,-0.11,2.38
14.990614175796509,0.11,2.05,0.15,2.05
15.000454187393188,-0.29,1.67,0.45,1.75
15.010354042053223,-0.71,1.29,0.81,1.68
15.020408868789673,-1.12,0.9,1.16,1.84
15.030475854873657,-1.42,0.49,1.49,2.11
15.053434133529663,-1.73,0.1,1.7,2.42
15.055404901504517,-1.9,-0.28,1.84,2.65
15.060405015945435,-2.02,-0.64,1.95,2.87
15.07013201713562,-2.2,-0.98,2.06,3.16
15.080145120620728,-2.28,-1.3,2.17,3.4
15.090244054794312,-2.23,-1.63,2.23,3.55
15.100172996520996,-2.09,-2.1,2.21,3.69
15.110064029693604,-1.88,-2.68,2.16,3.92
15.121000051498413,-1.48,-3.34,2.03,4.17
15.130934953689575,-1.01,-4.04,1.92,4.58
15.153933048248291,-0.56,-4.72,1.81,5.08
15.155892133712769,0.12,-5.31,1.74,5.58
15.15987515449524,0.88,-5.83,1.58,6.1
15.169799089431763,1.45,-6.04,1.34,6.35
15.179666996002197,1.75,-5.84,1.07,6.18
15.189953088760376,1.72,-5.48,0.8,5.79
15.199727058410645,1.42,-5.14,0.71,5.37
15.209917068481445,0.95,-4.99,0.85,5.15
15.220515012741089,0.29,-5.09,1.32,5.26
15.230300188064575,-0.45,-5.29,2.02,5.68
15.253828048706055,-0.73,-5.99,2.67,6.59
15.25587010383606,-0.37,-7.64,2.97,8.2
15.259350061416626,-0.16,-9.26,2.93,9.71
15.26937985420227,-0.33,-9.96,2.89,10.37
15.279263019561768,-0.9,-9.75,2.82,10.18
15.289484977722168,-1.61,-8.67,2.62,9.19
15.299373865127563,-1.61,-7.61,2.34,8.12
15.309380054473877,-0.96,-7.59,1.9,7.88
15.31963300704956,-1.0,-7.46,1.48,7.67
15.330381155014038,-1.5,-7.1,1.34,7.37
15.35222315788269,-1.75,-7.1,1.5,7.46
15.354099035263062,-1.62,-7.31,1.79,7.69
15.359172105789185,-1.36,-7.71,2.14,8.11
15.369180917739868,-1.32,-7.82,2.28,8.25
15.37933611869812,-1.44,-7.72,2.14,8.13
15.389158010482788,-1.76,-7.39,1.77,7.8
15.39917802810669,-2.31,-6.85,1.34,7.35
15.408981084823608,-2.88,-6.22,0.96,6.92
15.419787168502808,-3.39,-5.54,0.65,6.52
15.42910099029541,-3.89,-4.96,0.3,6.31
15.452184915542603,-4.34,-4.49,0.03,6.24
15.454171895980835,-4.69,-4.03,-0.19,6.18
15.458751916885376,-4.87,-3.63,-0.31,6.08
15.469093084335327,-5.01,-3.25,-0.44,5.98
15.47863507270813,-5.08,-2.84,-0.52,5.84
15.488793134689331,-4.93,-2.43,-0.56,5.52
15.49872088432312,-4.65,-1.93,-0.62,5.07
15.508690118789673,-4.33,-1.4,-0.57,4.58
15.519430875778198,-3.92,-0.92,-0.48,4.05
15.528771162033081,-3.46,-0.52,-0.3,3.51
15.553619146347046,-2.97,-0.16,-0.15,2.97
15.555655002593994,-2.56,0.13,-0.07,2.56
15.558365106582642,-2.2,0.33,-0.01,2.22
15.568302869796753,-1.74,0.4,0.04,1.78
15.578538179397583,-1.05,0.34,0.09,1.1
15.588374853134155,-0.31,0.3,0.01,0.43
15.598299980163574,0.37,0.24,-0.17,0.47
15.608304977416992,0.96,0.23,-0.29,1.02
15.61820912361145,1.75,0.2,-0.45,1.81
15.629049062728882,2.69,0.11,-0.64,2.76
15.651940107345581,3.74,0.06,-0.76,3.81
15.653994083404541,4.75,0.19,-1.02,4.86
15.657932043075562,5.68,0.49,-1.23,5.83
15.66807508468628,6.52,0.86,-1.46,6.73
15.677793979644775,7.25,1.41,-1.7,7.57
15.687865018844604,7.77,1.66,-2.04,8.2
15.698004961013794,8.33,2.01,-2.28,8.86
15.708047151565552,8.82,2.42,-2.58,9.5
15.71800708770752,9.22,3.01,-2.8,10.09
15.72809910774231,9.46,3.6,-2.99,10.55
15.749979972839355,9.8,3.85,-3.07,10.96
15.75193190574646,10.67,3.03,-2.88,11.45
15.757644891738892,11.51,1.84,-2.37,11.89
15.767685174942017,11.0,2.18,-1.7,11.34
15.777409076690674,9.65,3.48,-1.3,10.34
15.787724018096924,8.4,4.43,-1.41,9.6
15.797866106033325,7.72,4.86,-1.7,9.27
15.807584047317505,7.66,4.78,-1.7,9.18
15.817589044570923,7.83,4.45,-1.3,9.09
15.828383207321167,7.99,4.2,-0.7,9.05
15.850970983505249,8.06,4.12,-0.41,9.06
15.853025197982788,7.91,4.32,-0.66,9.03
15.857722043991089,7.51,4.64,-1.09,8.89
15.86735200881958,7.02,4.81,-1.37,8.61
15.877074956893921,6.36,4.96,-1.41,8.18
15.887048959732056,5.72,5.0,-1.07,7.67
15.897215127944946,5.17,4.91,-0.61,7.15
15.907279014587402,4.51,4.83,-0.33,6.61
15.91712212562561,3.72,4.83,-0.26,6.1
15.928313970565796,2.95,4.89,-0.22,5.71
15.950316190719604,2.29,4.89,-0.19,5.4
15.95228099822998,1.81,4.81,-0.22,5.14
15.957176923751831,1.47,4.68,-0.2,4.9
15.966974020004272,1.21,4.45,-0.21,4.61
15.97694993019104,0.95,4.11,-0.23,4.22
15.987128019332886,0.68,3.8,-0.17,3.86
15.996721982955933,0.43,3.36,-0.21,3.39
16.006635904312134,0.17,2.88,-0.23,2.89
16.017580032348633,-0.22,2.43,-0.22,2.44
16.026928186416626,-0.68,1.98,-0.12,2.09
16.05193305015564,-1.18,1.49,0.02,1.9
16.053936004638672,-1.66,1.0,0.22,1.95
16.056543111801147,-2.05,0.52,0.45,2.16
16.066606998443604,-2.17,0.01,0.72,2.28
16.076420068740845,-2.12,-0.47,1.02,2.39
16.086639165878296,-1.9,-0.94,1.28,2.47
16.096463918685913,-1.52,-1.52,1.39,2.55
16.10647702217102,-1.31,-2.23,1.39,2.93
16.116406202316284,-1.38,-2.94,1.3,3.49
16.126499891281128,-1.46,-3.55,1.11,3.99
16.14994788169861,-1.25,-4.12,1.07,4.43
16.151825189590454,-0.98,-4.64,1.08,4.86
16.15617799758911,-0.68,-5.0,1.19,5.18
16.166198015213013,-0.28,-5.18,1.36,5.36
16.176027059555054,0.3,-5.35,1.49,5.56
16.186020135879517,0.88,-5.4,1.66,5.71
16.1962468624115,1.26,-5.38,1.71,5.78
16.2060968875885,1.54,-5.25,1.82,5.76
16.21604895591736,1.85,-5.04,1.94,5.7
16.226760149002075,2.64,-5.58,1.85,6.44
16.25024914741516,3.68,-7.19,1.36,8.19
16.252322912216187,4.28,-8.96,0.8,9.96
16.255802869796753,3.66,-9.21,0.51,9.92
16.265851974487305,2.37,-8.0,0.82,8.38
16.275803089141846,1.48,-6.72,1.78,7.1
16.28585696220398,0.67,-6.14,2.56,6.68
16.295796155929565,0.3,-6.27,3.33,7.1
16.30579400062561,-0.09,-6.75,3.92,7.8
16.315683126449585,-0.77,-7.31,3.89,8.31
16.326639890670776,-1.46,-7.78,3.49,8.65
16.349406003952026,-1.73,-8.26,3.07,8.98
16.351374864578247,-2.08,-8.56,2.33,9.11
16.35554814338684,-2.82,-8.49,1.47,9.06
16.365504026412964,-3.59,-8.21,0.86,9.0
16.375334978103638,-4.15,-7.82,0.53,8.86
16.385261058807373,-4.56,-7.25,0.49,8.57
16.395421981811523,-4.86,-6.39,0.72,8.06
16.405422925949097,-5.07,-5.57,0.8,7.57
16.415356874465942,-5.34,-4.91,0.74,7.29
16.425246000289917,-5.74,-4.31,0.73,7.21
16.448593854904175,-6.09,-3.81,0.76,7.22
16.45053505897522,-6.34,-3.43,0.84,7.25
16.45510697364807,-6.54,-3.05,0.97,7.28
16.465157985687256,-6.66,-2.65,1.19,7.26
16.474982976913452,-6.55,-2.33,1.4,7.09
16.484950065612793,-6.28,-2.0,1.59,6.77
16.4950590133667,-5.87,-1.7,1.68,6.33
16.505077123641968,-5.47,-1.43,1.7,5.9
16.515088081359863,-5.13,-1.14,1.63,5.5
16.52504801750183,-4.6,-0.94,1.55,4.94
16.548835039138794,-3.99,-0.78,1.42,4.3
16.55078101158142,-3.43,-0.64,1.28,3.71
16.554742097854614,-2.84,-0.52,1.15,3.1
16.5646870136261,-2.14,-0.5,0.92,2.38
16.574601888656616,-1.41,-0.48,0.73,1.65
16.584851026535034,-0.63,-0.54,0.61,1.02
16.594599962234497,0.13,-0.62,0.67,0.92
16.60467505455017,0.79,-0.52,0.72,1.18
16.615694999694824,1.67,-0.56,0.57,1.85
16.6249840259552,2.47,-0.78,0.39,2.61
16.648741960525513,3.1,-0.88,0.36,3.24
16.650766134262085,3.72,-0.7,0.5,3.81
16.654340028762817,4.27,-0.31,0.42,4.3
16.664361000061035,4.93,0.24,0.22,4.94
16.67430806159973,6.05,0.66,-0.06,6.08
16.684484004974365,7.06,0.84,-0.53,7.12
16.694595098495483,7.99,1.28,-0.93,8.14
16.70424199104309,8.8,2.11,-1.19,9.12
16.71436619758606,9.31,2.83,-1.65,9.86
16.72427201271057,9.81,3.03,-1.96,10.45
16.747048139572144,10.63,2.56,-2.16,11.14
16.748957872390747,11.65,1.46,-2.08,11.92
16.75416898727417,11.9,0.94,-1.71,12.05
16.76384401321411,11.27,1.59,-1.34,11.46
16.773831129074097,10.59,2.44,-1.39,10.95
16.783764123916626,10.0,3.38,-1.71,10.69
16.794103860855103,9.35,4.37,-1.98,10.5
16.804044008255005,8.94,4.85,-1.98,10.36
16.81396794319153,8.96,4.62,-1.55,10.19
16.823879957199097,9.06,4.1,-0.69,9.96
16.84601616859436,8.91,3.66,0.07,9.63
16.847828149795532,8.52,3.26,0.27,9.12
16.853777170181274,7.98,2.97,0.09,8.51
16.86345410346985,7.36,2.92,-0.3,7.92
16.87351703643799,6.64,3.0,-0.65,7.31
16.883782148361206,5.91,3.23,-0.78,6.78
16.893646001815796,5.17,3.57,-0.74,6.32
16.90368390083313,4.42,4.0,-0.64,5.99
16.91358208656311,3.69,4.4,-0.56,5.76
16.92357611656189,3.09,4.68,-0.37,5.62
16.94792914390564,2.62,4.83,-0.2,5.49
16.949856996536255,2.15,4.84,-0.05,5.29
16.953450918197632,1.69,4.67,0.01,4.96
16.963183164596558,1.2,4.36,-0.01,4.52
16.97332501411438,0.63,4.11,-0.04,4.15
16.98344111442566,0.04,3.7,-0.13,3.7
16.993283987045288,-0.51,3.2,-0.15,3.24
17.003326177597046,-1.03,2.81,-0.09,2.99
17.014219045639038,-1.41,2.36,0.05,2.74
17.023705005645752,-1.62,1.81,0.18,2.43
17.047938108444214,-1.76,1.27,0.29,2.18
17.049970865249634,-1.98,0.87,0.35,2.19
17.053004026412964,-2.03,0.42,0.36,2.1
17.063016176223755,-1.89,-0.09,0.37,1.92
17.07311987876892,-1.54,-0.53,0.37,1.67
17.083011865615845,-0.97,-1.1,0.31,1.49
17.092839002609253,-0.5,-1.64,0.14,1.72
17.103003978729248,-0.13,-2.07,0.14,2.07
17.112807035446167,0.28,-2.88,0.1,2.89
17.122860193252563,0.76,-3.66,0.21,3.74
17.145589113235474,1.12,-4.53,0.49,4.69
17.1475031375885,1.15,-5.23,0.95,5.43
17.152712106704712,1.14,-5.76,1.49,6.05
17.162530183792114,1.15,-6.23,1.99,6.64
17.172482013702393,1.14,-6.51,2.46,7.05
17.1824471950531,0.99,-6.52,2.92,7.21
17.192546129226685,0.64,-6.27,3.25,7.09
17.202507972717285,0.34,-5.85,3.43,6.78
17.212494134902954,0.94,-6.34,3.3,7.2
17.222788095474243,2.08,-8.33,2.48,8.93
17.24557900428772,2.25,-10.03,1.29,10.35
17.24749207496643,1.13,-10.2,0.69,10.28
17.252318143844604,-0.56,-8.94,0.73,8.98
17.262112855911255,-1.62,-7.74,1.37,8.02
17.27212119102478,-1.48,-7.44,2.16,7.88
17.28230309486389,-0.96,-7.85,2.66,8.34
17.292124032974243,-1.17,-7.63,2.97,8.27
17.302151918411255,-1.57,-6.89,3.21,7.76
17.312115907669067,-1.71,-6.48,3.15,7.4
17.323091983795166,-1.74,-6.75,2.45,7.38
17.34647798538208,-2.1,-7.1,1.44,7.54
17.348748922348022,-2.64,-7.25,0.73,7.75
17.351929903030396,-3.49,-6.99,0.27,7.81
17.361919164657593,-4.52,-6.55,-0.16,7.95
17.372081995010376,-5.45,-6.04,-0.49,8.15
17.381942987442017,-6.29,-5.39,-0.72,8.31
17.39185118675232,-7.0,-4.64,-0.84,8.44
17.401839017868042,-7.38,-4.06,-0.81,8.46
17.411722898483276,-7.61,-3.42,-0.65,8.36
17.421807050704956,-7.66,-3.01,-0.5,8.24
17.44653010368347,-7.53,-2.73,-0.22,8.01
17.44865107536316,-7.52,-2.45,0.07,7.9
17.45166802406311,-7.61,-2.14,0.32,7.91
17.461400032043457,-7.62,-1.98,0.61,7.89
17.47137999534607,-7.47,-1.94,0.88,7.76
17.481872081756592,-7.18,-1.88,1.08,7.5
17.491513967514038,-6.67,-1.82,1.16,7.01
17.501506090164185,-5.71,-1.78,1.24,6.1
17.51141095161438,-4.47,-1.72,1.22,4.94
17.52143692970276,-3.17,-1.68,1.06,3.74
17.544218063354492,-2.1,-1.56,0.75,2.72
17.546136140823364,-1.27,-1.28,0.38,1.84
17.55120587348938,-0.57,-0.84,-0.09,1.01
17.561169862747192,-0.06,-0.5,-0.55,0.74
17.571165084838867,0.65,-0.4,-0.7,1.03
17.581377029418945,1.46,-0.24,-0.4,1.53
17.59148097038269,2.55,0.09,-0.03,2.55
17.601171016693115,4.07,0.15,0.28,4.08
17.6118381023407,5.49,0.3,0.47,5.51
17.621474027633667,6.38,0.83,0.38,6.44
17.645920038223267,6.87,1.52,0.14,7.03
17.647924184799194,7.01,2.27,-0.22,7.37
17.650858163833618,6.85,2.95,-0.5,7.47
17.660730123519897,7.23,3.34,-0.67,7.99
17.670707941055298,7.95,3.52,-0.73,8.72
17.68082594871521,8.64,4.02,-0.71,9.55
17.690759897232056,9.01,4.73,-0.52,10.18
17.700820207595825,9.29,5.05,-0.28,10.57
17.710644960403442,9.34,5.31,-0.25,10.74
17.72161102294922,9.57,5.14,-0.24,10.86
17.746546983718872,10.1,4.58,-0.25,11.09
17.748932123184204,10.25,4.44,-0.27,11.17
17.750295877456665,10.12,4.83,-0.47,11.22
17.760403871536255,9.97,5.34,-1.07,11.36
17.770302057266235,9.58,5.86,-1.98,11.4
17.780719995498657,8.86,6.54,-2.8,11.36
17.79054307937622,8.17,6.93,-3.15,11.16
17.8003990650177,7.64,6.61,-2.94,10.52
17.810365915298462,7.13,6.21,-1.98,9.66
17.820379972457886,6.69,5.91,-0.82,8.96
17.844638109207153,6.27,5.6,0.04,8.4
17.84650707244873,5.86,5.3,0.45,7.91
17.850147008895874,5.43,5.01,0.5,7.4
17.860055208206177,4.97,4.81,0.44,6.93
17.869863986968994,4.65,4.68,0.48,6.61
17.87996006011963,4.51,4.63,0.57,6.48
17.890103101730347,4.36,4.61,0.62,6.37
17.899999856948853,3.99,4.56,0.55,6.08
17.910012006759644,3.41,4.51,0.5,5.67
17.91997504234314,2.69,4.42,0.48,5.19
17.94407296180725,2.0,4.23,0.45,4.7
17.946029901504517,1.36,3.94,0.45,4.19
17.9497811794281,0.78,3.54,0.41,3.64
17.9597110748291,0.28,3.08,0.48,3.12
17.96961998939514,-0.17,2.65,0.64,2.73
17.979660034179688,-0.54,2.13,0.8,2.33
17.989799976348877,-0.84,1.6,1.02,2.07
17.999656915664673,-0.97,1.08,1.24,1.9
18.009597063064575,-1.2,0.61,1.43,1.96
18.01964497566223,-1.38,0.21,1.55,2.08
18.042703866958618,-1.54,-0.19,1.65,2.26
18.04461097717285,-1.75,-0.67,1.65,2.49
18.049434900283813,-2.04,-1.13,1.61,2.83
18.059372186660767,-2.29,-1.56,1.56,3.17
18.06932806968689,-2.49,-2.06,1.58,3.59
18.079174995422363,-2.62,-2.5,1.65,3.97
18.089296102523804,-2.44,-3.06,1.78,4.29
18.099359035491943,-1.81,-3.63,1.96,4.5
18.10924506187439,-0.64,-4.03,2.11,4.59
18.120265007019043,0.4,-4.22,2.1,4.73
18.143437147140503,0.8,-4.24,2.02,4.76
18.145483016967773,0.94,-4.41,1.85,4.87
18.149007081985474,0.92,-4.78,1.65,5.13
18.15923810005188,0.78,-5.13,1.75,5.47
18.168910026550293,0.69,-5.53,2.08,5.94
18.17871117591858,0.48,-5.75,2.4,6.24
18.18896794319153,0.13,-5.67,2.71,6.28
18.199043035507202,-0.17,-5.43,3.08,6.24
18.20894694328308,0.0,-5.51,3.43,6.49
18.21892499923706,1.12,-6.89,3.51,7.81
18.243154048919678,2.13,-9.03,3.05,9.76
18.245115995407104,1.94,-10.48,2.63,10.97
18.248703002929688,1.04,-10.9,2.85,11.31
18.25860905647278,-0.7,-9.61,3.5,10.25
18.26855492591858,-1.73,-8.25,4.13,9.38
18.27866005897522,-1.27,-8.54,4.46,9.71
18.288642168045044,-1.02,-9.06,4.11,10.0
18.298534154891968,-1.62,-8.48,3.87,9.46
18.308735132217407,-2.29,-7.36,4.0,8.68
18.31860899925232,-2.63,-6.65,4.16,8.27
18.341604948043823,-2.73,-6.41,4.23,8.15
18.3435800075531,-2.74,-6.63,4.0,8.21
18.348281145095825,-3.06,-6.71,3.44,8.13
18.35822319984436,-3.57,-6.6,2.8,8.0
18.368277072906494,-4.17,-6.44,2.42,8.04
18.377978086471558,-4.77,-6.08,2.28,8.05
18.388320207595825,-5.36,-5.64,2.21,8.08
18.398241996765137,-5.74,-5.25,2.35,8.12
18.408149003982544,-5.77,-4.96,2.51,8.01
18.41889786720276,-5.44,-4.8,2.38,7.63
18.443443059921265,-4.86,-4.46,1.91,6.86
18.445518016815186,-4.33,-4.01,1.1,6.0
18.447946071624756,-4.47,-3.55,0.06,5.7
18.45783495903015,-5.08,-3.34,-0.83,6.13
18.467891931533813,-5.74,-3.21,-1.38,6.71
18.47788405418396,-6.31,-3.01,-1.5,7.15
18.487912893295288,-6.7,-2.79,-1.39,7.38
18.49788212776184,-6.48,-2.52,-1.13,7.04
18.507752180099487,-5.59,-2.26,-0.57,6.05
18.51867413520813,-4.16,-2.03,-0.02,4.62
18.54397416114807,-2.92,-1.69,0.32,3.38
18.546020030975342,-1.94,-1.51,0.63,2.53
18.5473370552063,-1.12,-1.51,0.77,2.03
18.557349920272827,-0.57,-1.32,0.77,1.63
18.567501068115234,-0.01,-0.97,0.69,1.19
18.57746720314026,0.67,-0.74,0.46,1.09
18.587462186813354,1.6,-0.57,0.31,1.72
18.59750008583069,2.68,-0.32,0.23,2.7
18.607503175735474,3.64,-0.09,0.36,3.65
18.61741805076599,4.41,0.31,0.66,4.46
18.64191198348999,5.02,0.97,0.67,5.15
18.64389705657959,5.7,1.68,0.39,5.95
18.647212028503418,6.48,2.39,-0.01,6.9
18.65724015235901,7.39,2.92,-0.54,7.96
18.6672580242157,8.19,3.5,-1.01,8.96
18.677201986312866,8.88,4.17,-1.46,9.91
18.687210083007812,9.34,4.99,-1.84,10.74
18.697065114974976,9.88,5.64,-2.24,11.59
18.707111120224,10.35,5.95,-2.54,12.2
18.7170569896698,11.01,5.34,-2.63,12.51
18.740118980407715,11.88,4.14,-2.27,12.78
18.74207091331482,12.14,3.85,-1.46,12.81
18.746843099594116,11.74,4.81,-0.85,12.71
18.756906986236572,11.01,5.96,-1.17,12.57
18.766828060150146,9.83,7.41,-2.27,12.51
18.77656388282776,10.2,6.86,-3.25,12.71
18.786930084228516,10.33,6.12,-3.48,12.5
18.796653985977173,9.88,6.08,-2.81,11.93
18.80678701400757,9.33,5.97,-1.74,11.21
18.81672215461731,8.79,5.78,-1.18,10.58
18.83948016166687,8.12,5.42,-1.02,9.81
18.841429948806763,7.26,5.03,-0.81,8.86
18.846503973007202,6.44,4.77,-0.4,8.02
18.85652208328247,5.63,4.6,0.18,7.27
18.86647605895996,4.72,4.52,0.71,6.57
18.876270055770874,3.85,4.5,1.03,6.01
18.886478185653687,3.21,4.46,1.14,5.61
18.896646976470947,2.72,4.49,1.1,5.36
18.90640091896057,2.07,4.65,1.01,5.18
18.9163658618927,1.41,4.72,0.87,5.0
18.940666913986206,0.88,4.65,0.64,4.77
18.942672967910767,0.33,4.5,0.52,4.54
18.946056127548218,-0.18,4.25,0.49,4.28
18.95616316795349,-0.64,3.87,0.53,3.95
18.965962171554565,-1.09,3.45,0.61,3.66
18.976133108139038,-1.56,3.0,0.74,3.46
18.98623013496399,-1.86,2.59,0.87,3.3
18.996206045150757,-2.2,2.22,0.93,3.26
19.006067037582397,-2.48,1.88,0.98,3.26
19.016892194747925,-2.68,1.6,0.93,3.25
19.04119086265564,-2.85,1.29,0.79,3.22
19.04328989982605,-2.84,0.93,0.62,3.05
19.04598903656006,-2.7,0.46,0.47,2.77
19.055822134017944,-2.43,-0.17,0.5,2.48
19.06572198867798,-1.89,-0.96,0.62,2.2
19.075895071029663,-1.31,-1.67,0.76,2.25
19.085714101791382,-0.69,-2.35,1.02,2.65
19.09563398361206,-0.01,-3.0,1.25,3.25
19.1056969165802,0.81,-3.62,1.46,3.98
19.11640501022339,1.57,-4.12,1.54,4.67
19.142189979553223,2.25,-4.5,1.55,5.26
19.144234895706177,2.73,-4.62,1.58,5.59
19.14560604095459,3.18,-4.58,1.64,5.81
19.155452013015747,3.63,-4.67,1.68,6.14
19.16546320915222,3.78,-4.81,1.77,6.36
19.17524218559265,3.57,-4.98,2.05,6.46
19.185363054275513,3.79,-5.81,2.32,7.31
19.195401906967163,4.62,-7.67,2.38,9.26
19.205300092697144,5.1,-9.52,2.39,11.06
19.215283155441284,4.56,-9.85,2.67,11.17
19.2393581867218,2.98,-8.53,3.01,9.52
19.241345167160034,1.35,-6.85,3.4,7.76
19.24504590034485,0.01,-5.74,3.6,6.77
19.255067110061646,-0.73,-5.46,3.55,6.55
19.26491403579712,-0.9,-6.32,3.42,7.24
19.274779081344604,-0.91,-7.26,3.12,7.95
19.28497290611267,-0.79,-7.97,3.01,8.55
19.29499101638794,-0.82,-8.47,2.94,9.0
19.304940938949585,-0.96,-8.89,2.69,9.33
19.314915895462036,-1.4,-9.1,2.31,9.49
19.33897614479065,-2.08,-8.99,1.73,9.38
19.340900182724,-2.72,-8.68,1.14,9.16
19.344855070114136,-3.42,-8.1,0.61,8.81
19.35462498664856,-4.07,-7.44,0.2,8.48
19.364614009857178,-4.72,-6.82,-0.1,8.29
19.374776124954224,-5.41,-6.27,-0.34,8.28
19.384809017181396,-6.06,-5.8,-0.6,8.4
19.39462113380432,-6.56,-5.44,-0.84,8.56
19.40457320213318,-6.93,-5.06,-1.09,8.64
19.415524005889893,-7.22,-4.64,-1.23,8.67
19.438905954360962,-7.47,-4.23,-1.24,8.67
19.440723180770874,-7.53,-3.89,-1.22,8.56
19.444344997406006,-7.44,-3.52,-1.19,8.31
19.454291105270386,-7.13,-3.11,-1.09,7.85
19.46419405937195,-6.7,-2.7,-0.99,7.29
19.474115133285522,-6.4,-2.23,-1.07,6.86
19.484535932540894,-6.01,-1.82,-1.2,6.39
19.494200944900513,-5.53,-1.41,-1.26,5.84
19.5042622089386,-5.02,-1.0,-1.34,5.29
19.51420307159424,-4.63,-0.64,-1.29,4.84
19.537062883377075,-4.31,-0.43,-1.27,4.51
19.539013147354126,-3.94,-0.33,-1.14,4.11
19.543956995010376,-3.4,-0.33,-0.81,3.51
19.553992986679077,-2.61,-0.44,-0.32,2.66
19.563919067382812,-1.64,-0.47,0.38,1.74
19.57381319999695,-0.43,-0.39,1.04,1.19
19.583736181259155,1.11,-0.19,1.58,1.94
19.593968152999878,3.03,-0.12,1.87,3.56
19.603828191757202,5.23,-0.15,1.83,5.54
19.61377787590027,7.05,-0.01,1.8,7.27
19.636540174484253,8.11,0.5,1.48,8.25
19.638478994369507,8.4,1.11,0.64,8.49
19.643591165542603,8.34,1.63,-0.25,8.5
19.65369486808777,8.36,2.05,-1.13,8.68
19.663452863693237,8.45,2.52,-1.93,9.02
19.6734721660614,8.44,3.22,-2.55,9.38
19.683979034423828,8.45,3.84,-3.31,9.85
19.693523168563843,8.49,4.13,-3.88,10.2
19.703505992889404,8.63,3.99,-4.21,10.39
19.71349000930786,8.85,2.89,-4.38,10.28
19.73823094367981,8.54,1.6,-4.09,9.6
19.740156888961792,7.34,1.61,-3.56,8.31
19.743247985839844,6.08,2.73,-2.92,7.27
19.753175973892212,5.74,3.66,-2.62,7.29
19.76325798034668,5.89,3.94,-2.62,7.55
19.77336096763611,6.04,3.57,-2.55,7.46
19.783282995224,5.91,3.33,-2.29,7.15
19.79311203956604,5.96,3.25,-1.84,7.03
19.803246021270752,6.09,3.37,-1.33,7.08
19.814229011535645,6.21,3.76,-1.12,7.34
19.838546991348267,6.23,4.09,-1.11,7.53
19.840593099594116,5.95,4.41,-1.1,7.48
19.842814207077026,5.49,4.61,-1.07,7.24
19.852883100509644,4.99,4.68,-0.83,6.89
19.86267113685608,4.43,4.71,-0.48,6.48
19.872864961624146,3.9,4.73,-0.13,6.13
19.882825136184692,3.33,4.78,0.14,5.82
19.89278292655945,2.74,4.91,0.34,5.63
19.902793169021606,2.21,4.97,0.44,5.45
19.912684202194214,1.7,4.99,0.41,5.28
19.934956073760986,1.25,4.98,0.4,5.15
19.93692398071289,0.86,4.92,0.41,5.01
19.942641019821167,0.47,4.8,0.46,4.84
19.952534914016724,0.15,4.57,0.52,4.6
19.96257996559143,-0.14,4.28,0.59,4.32
19.972543001174927,-0.4,3.93,0.63,4.0
19.98286509513855,-0.79,3.55,0.75,3.71
19.992353200912476,-1.14,3.14,0.8,3.43
20.002514123916626,-1.39,2.72,0.78,3.15
20.012315034866333,-1.45,2.4,0.75,2.9
20.038950204849243,-1.42,2.09,0.58,2.59
20.040868043899536,-1.33,1.76,0.47,2.25
20.042286157608032,-1.05,1.34,0.41,1.75
20.05216097831726,-0.79,0.87,0.41,1.24
20.062079191207886,-0.6,0.24,0.43,0.77
20.07201600074768,-0.27,-0.54,0.6,0.85
20.082124948501587,0.07,-1.39,0.79,1.6
20.09206509590149,0.3,-2.17,0.99,2.4
20.101988077163696,0.56,-2.97,1.14,3.23
20.113450050354004,0.83,-3.67,1.27,3.97
20.136574029922485,1.05,-4.23,1.38,4.57
20.138508081436157,1.21,-4.58,1.46,4.95
20.14181399345398,1.27,-4.78,1.65,5.21
20.151835203170776,1.26,-4.97,1.87,5.45
20.16165518760681,1.18,-5.09,2.07,5.62
20.171950101852417,0.95,-5.03,2.27,5.59
20.18180203437805,0.58,-4.8,2.34,5.37
20.191745042800903,0.51,-4.94,2.18,5.42
20.20172095298767,1.08,-6.04,1.6,6.34
20.211567163467407,1.89,-7.49,1.06,7.79
20.23523211479187,2.02,-8.61,0.69,8.87
20.237151861190796,1.62,-8.72,0.73,8.89
20.241552114486694,0.76,-7.81,1.26,7.94
20.25357699394226,0.23,-6.88,1.92,7.14
20.261136054992676,0.42,-7.06,2.28,7.43
20.271326065063477,0.33,-7.79,2.33,8.13
20.281572103500366,-0.3,-8.16,2.5,8.53
20.291313886642456,-0.96,-8.31,2.8,8.82
20.301263093948364,-1.5,-8.27,3.18,8.98
20.311299085617065,-1.78,-8.42,3.32,9.22
20.334639072418213,-2.16,-8.58,3.14,9.38
20.33644199371338,-2.76,-8.36,2.82,9.24
20.341044187545776,-3.42,-7.96,2.41,8.99
20.35118794441223,-4.09,-7.43,1.96,8.7
20.360877990722656,-4.8,-6.83,1.63,8.5
20.370848894119263,-5.58,-6.14,1.36,8.4
20.380955934524536,-6.19,-5.52,1.16,8.37
20.391010999679565,-6.59,-5.01,1.0,8.33
20.40095806121826,-6.8,-4.48,0.82,8.18
20.411731958389282,-6.86,-3.96,0.6,7.94
20.436092138290405,-6.84,-3.41,0.36,7.65
20.43816113471985,-6.75,-2.89,0.07,7.34
20.44074511528015,-6.46,-2.42,-0.13,6.89
20.450762033462524,-6.07,-1.94,-0.18,6.37
20.460456132888794,-5.53,-1.53,-0.19,5.74
20.470610857009888,-4.99,-1.09,-0.11,5.1
20.48070001602173,-4.59,-0.62,0.01,4.63
20.49061107635498,-4.23,-0.22,0.09,4.23
20.50067687034607,-3.89,0.08,0.1,3.89
20.510560035705566,-3.59,0.3,0.12,3.6
20.535113096237183,-3.23,0.47,0.12,3.26
20.536861181259155,-2.73,0.56,0.13,2.78
20.540377855300903,-2.22,0.58,0.13,2.29
20.550339937210083,-1.53,0.43,0.18,1.59
20.56027913093567,-0.55,0.07,0.12,0.56
20.57033085823059,0.87,-0.44,0.05,0.97
20.580590963363647,2.21,-0.69,-0.16,2.32
20.590355157852173,3.54,-0.77,-0.42,3.64
20.600362062454224,5.22,-0.84,-0.48,5.3
20.610141038894653,6.79,-0.79,-0.48,6.85
20.634411096572876,7.5,-0.4,-0.54,7.53
20.636548042297363,7.55,0.05,-0.71,7.58
20.639952898025513,7.29,0.25,-0.69,7.32
20.650031089782715,6.85,0.41,-0.51,6.88
20.65996813774109,6.47,0.61,-0.25,6.5
20.66988205909729,6.23,0.89,-0.07,6.29
20.680018186569214,6.18,1.32,-0.16,6.32
20.690021991729736,6.11,1.79,-0.31,6.37
20.699984073638916,6.17,2.3,-0.31,6.59
20.710613012313843,6.47,2.39,-0.34,6.9
20.73495602607727,6.88,1.66,-0.45,7.09
20.736993074417114,6.88,1.02,-0.35,6.96
20.739705085754395,6.12,1.59,-0.06,6.32
20.75111413002014,5.61,2.74,0.19,6.24
20.759565114974976,5.95,3.44,-0.05,6.87
20.77005696296692,6.62,3.73,-0.57,7.61
20.77968406677246,7.26,4.08,-0.88,8.37
20.789570093154907,7.77,4.53,-0.98,9.04
20.799558877944946,7.99,5.0,-1.06,9.48
20.809489011764526,8.05,5.41,-1.19,9.77
20.837346076965332,8.01,5.76,-1.39,9.96
20.839205980300903,7.69,6.04,-1.48,9.88
20.840516090393066,7.06,6.22,-1.39,9.51
20.84920907020569,6.2,6.16,-1.01,8.79
20.859050989151,5.25,5.95,-0.42,7.94
20.869073152542114,4.28,5.7,0.14,7.12
20.879468202590942,3.45,5.41,0.56,6.44
20.889177083969116,2.71,5.23,0.76,5.93
20.899201154708862,2.07,5.16,0.77,5.61
20.90917992591858,1.71,5.04,0.67,5.36
20.933054208755493,1.45,5.0,0.43,5.22
20.934990167617798,1.15,5.12,0.16,5.25
20.9388370513916,0.96,5.2,-0.09,5.28
20.948955059051514,0.77,5.15,-0.36,5.21
20.958679914474487,0.4,5.08,-0.44,5.11
20.969019174575806,0.04,4.79,-0.34,4.8
20.978864908218384,-0.36,4.47,-0.21,4.48
20.989026069641113,-0.77,4.06,0.06,4.13
20.998812913894653,-1.08,3.6,0.24,3.76
21.009512186050415,-1.3,3.1,0.39,3.38
21.035860061645508,-1.57,2.85,0.45,3.28
21.037851095199585,-1.8,2.64,0.4,3.22
21.03920817375183,-1.88,2.31,0.34,2.99
21.0485360622406,-1.83,1.9,0.27,2.65
21.058343172073364,-1.74,1.39,0.24,2.23
21.068434953689575,-1.47,0.81,0.39,1.72
21.078492879867554,-0.89,0.17,0.69,1.13
21.0885009765625,-0.21,-0.49,1.02,1.15
21.098604917526245,0.53,-1.07,1.35,1.8
21.10829186439514,1.22,-1.65,1.53,2.55
21.13348889350891,1.83,-2.33,1.57,3.35
21.135443925857544,2.26,-2.92,1.54,4.0
21.13805603981018,2.56,-3.33,1.58,4.48
21.148298025131226,2.77,-3.58,1.68,4.82
21.1581552028656,2.96,-3.71,1.73,5.05
21.168068170547485,3.17,-3.79,1.77,5.24
21.178152084350586,3.32,-3.9,1.65,5.38
21.188067197799683,3.27,-3.9,1.58,5.32
21.198217153549194,3.18,-3.93,1.55,5.28
21.208336114883423,3.4,-4.39,1.66,5.79
21.232331037521362,4.04,-5.88,1.43,7.27
21.234330892562866,4.25,-7.46,0.93,8.63
21.237792015075684,4.24,-8.72,0.69,9.72
21.248235940933228,3.2,-8.78,0.63,9.36
21.257814168930054,1.27,-7.56,1.1,7.74
21.267624139785767,-0.05,-6.34,1.96,6.63
21.277533054351807,-0.34,-6.45,2.62,6.97
21.287841081619263,-0.8,-6.78,3.18,7.53
21.297628164291382,-1.27,-7.08,3.45,7.97
21.307605981826782,-1.46,-7.65,3.29,8.45
21.33157706260681,-1.64,-8.22,2.8,8.83
21.333543062210083,-1.75,-9.04,2.21,9.46
21.337584018707275,-2.11,-9.53,1.88,9.94
21.347445011138916,-2.92,-9.5,1.67,10.07
21.357412099838257,-3.79,-9.22,1.44,10.07
21.367680072784424,-4.59,-8.75,1.2,9.95
21.377533197402954,-5.37,-8.12,0.91,9.77
21.38755702972412,-6.15,-7.35,0.67,9.6
21.397531986236572,-6.84,-6.5,0.58,9.45
21.40810513496399,-7.21,-5.82,0.48,9.27
21.433457136154175,-7.26,-5.25,0.29,8.96
21.435468912124634,-7.21,-4.67,0.04,8.59
21.437082052230835,-7.01,-4.07,-0.09,8.1
21.447020053863525,-6.59,-3.61,-0.12,7.51
21.457113027572632,-6.31,-3.14,0.0,7.04
21.466902017593384,-6.2,-2.64,0.16,6.74
21.477110147476196,-5.98,-2.33,0.34,6.42
21.487046003341675,-5.79,-2.05,0.53,6.16
21.49691104888916,-5.76,-1.66,0.63,6.02
21.506955862045288,-5.64,-1.36,0.65,5.83
21.531946897506714,-5.36,-1.11,0.61,5.5
21.533847093582153,-5.02,-0.88,0.55,5.12
21.536700963974,-4.56,-0.73,0.49,4.64
21.546701192855835,-4.01,-0.64,0.45,4.08
21.556642055511475,-3.25,-0.67,0.44,3.34
21.56656813621521,-2.58,-0.61,0.41,2.68
21.576688051223755,-1.99,-0.57,0.41,2.11
21.586899042129517,-1.34,-0.62,0.39,1.52
21.59674906730652,-0.53,-0.67,0.39,0.93
21.606684923171997,0.42,-0.74,0.36,0.92
21.629678964614868,1.39,-0.8,0.38,1.64
21.631716012954712,2.26,-0.85,0.43,2.45
21.636502981185913,3.03,-0.81,0.45,3.16
21.64630913734436,3.94,-0.74,0.48,4.03
21.656272172927856,4.79,-0.59,0.46,4.84
21.666187047958374,5.56,-0.35,0.41,5.58
21.676102876663208,6.43,-0.05,0.27,6.43
21.686382055282593,7.29,0.14,0.11,7.29
21.696314096450806,7.99,0.67,0.16,8.01
21.706300973892212,8.56,1.59,0.06,8.7
21.730354070663452,9.66,1.6,-0.42,9.8
21.73228406906128,11.33,0.33,-0.75,11.35
21.736066102981567,12.01,-0.27,-0.72,12.03
21.74579906463623,11.62,0.74,-0.42,11.65
21.75595498085022,11.27,1.92,-0.3,11.43
21.76586413383484,10.89,2.81,-0.43,11.25
21.775943994522095,10.35,3.4,-0.68,10.91
21.785948038101196,9.61,4.11,-0.75,10.47
21.79596209526062,8.79,4.62,-0.62,9.94
21.80696702003479,8.25,4.64,-0.32,9.47
21.831276178359985,7.79,4.53,-0.02,9.01
21.833271026611328,7.21,4.42,0.16,8.45
21.835785150527954,6.44,4.32,0.35,7.76
21.845700979232788,5.56,4.35,0.5,7.07
21.8555428981781,4.78,4.37,0.54,6.49
21.865451097488403,4.23,4.49,0.5,6.18
21.875609159469604,3.69,4.75,0.3,6.02
21.885694980621338,3.18,5.02,0.02,5.94
21.89550518989563,2.68,5.51,-0.38,6.13
21.906352043151855,2.17,5.83,-1.02,6.3
21.930163145065308,1.75,6.02,-1.43,6.43
21.93278193473816,1.33,6.17,-1.55,6.49
21.935492038726807,0.88,6.21,-1.51,6.45
21.945401906967163,0.37,6.06,-1.31,6.21
21.955188035964966,-0.19,5.86,-1.01,5.94
21.96511697769165,-0.81,5.72,-0.73,5.82
21.975230932235718,-1.34,5.52,-0.51,5.7
21.985295057296753,-1.75,5.34,-0.38,5.63
21.995177030563354,-2.1,5.25,-0.32,5.66
22.005203008651733,-2.13,5.12,-0.36,5.55
22.029844045639038,-2.08,4.96,-0.38,5.39
22.032219171524048,-1.99,4.82,-0.25,5.22
22.034990072250366,-1.74,4.64,-0.18,4.95
22.04487109184265,-1.43,4.27,-0.1,4.5
22.05483317375183,-1.12,3.83,0.13,3.99
22.065183877944946,-0.79,3.3,0.38,3.41
22.074897050857544,-0.47,2.6,0.55,2.69
22.084931135177612,-0.06,1.88,0.73,2.01
22.0948269367218,0.52,1.06,0.87,1.46
22.105637073516846,1.24,0.18,0.97,1.58
22.130841970443726,2.08,-0.68,1.24,2.51
22.132906198501587,3.02,-1.46,1.49,3.67
22.1342670917511,3.89,-1.86,1.59,4.59
22.144696950912476,4.64,-2.17,1.55,5.35
22.154585123062134,5.16,-2.56,1.57,5.97
22.16447401046753,5.24,-2.5,1.63,6.03
22.174651861190796,4.95,-2.81,1.37,5.85
22.18460702896118,4.44,-3.47,1.16,5.75
22.194428205490112,3.67,-4.23,1.12,5.71
22.204482078552246,3.46,-5.78,1.17,6.83
22.22951602935791,4.26,-8.56,1.53,9.68
22.231376886367798,4.3,-10.08,2.21,11.17
22.234246969223022,4.05,-10.67,3.13,11.83
22.244158029556274,3.55,-10.18,3.41,11.3
22.254360914230347,2.35,-7.47,3.92,8.75
22.263875007629395,0.95,-5.04,3.95,6.47
22.274075031280518,-0.17,-3.91,3.45,5.21
22.284157037734985,-0.89,-3.73,3.29,5.05
22.294095039367676,-1.75,-4.12,3.56,5.71
22.30411410331726,-2.03,-5.03,4.04,6.76
22.32629704475403,-1.55,-6.5,4.39,7.99
22.328266859054565,-1.44,-7.63,4.04,8.75
22.333924055099487,-1.81,-8.0,3.34,8.85
22.343745946884155,-2.34,-8.0,2.4,8.67
22.353857040405273,-3.0,-7.56,1.34,8.24
22.363643884658813,-3.81,-6.76,0.54,7.77
22.37396788597107,-4.7,-5.84,0.07,7.49
22.383743047714233,-5.55,-5.13,-0.33,7.56
22.393715143203735,-6.19,-4.63,-0.59,7.75
22.40448307991028,-6.66,-4.35,-0.81,7.99
22.429162979125977,-7.02,-4.22,-0.84,8.23
22.431119203567505,-7.58,-3.95,-0.8,8.58
22.433640003204346,-8.1,-3.79,-0.83,8.98
22.443724870681763,-8.41,-3.62,-0.84,9.19
22.453392028808594,-8.64,-3.4,-0.78,9.31
22.463226079940796,-8.67,-3.16,-0.68,9.25
22.47356915473938,-8.35,-3.14,-0.59,8.94
22.483527898788452,-8.04,-3.17,-0.57,8.66
22.493407011032104,-7.78,-3.22,-0.46,8.43
22.504199981689453,-7.28,-3.3,-0.28,7.99
22.528635025024414,-6.9,-3.31,-0.1,7.65
22.53070306777954,-6.48,-3.32,0.07,7.28
22.533096075057983,-5.84,-3.37,0.18,6.74
22.543110132217407,-5.11,-3.44,0.17,6.16
22.553383111953735,-4.45,-3.38,0.15,5.59
22.562976121902466,-3.56,-3.3,0.08,4.85
22.57312798500061,-2.92,-3.32,0.04,4.42
22.58315396308899,-2.39,-3.49,0.11,4.23
22.59296488761902,-1.75,-3.65,0.33,4.06
22.60298991203308,-1.0,-3.84,0.6,4.01
22.627668142318726,0.12,-4.18,0.84,4.26
22.62964105606079,1.36,-4.17,1.12,4.52
22.632927179336548,2.22,-3.89,1.37,4.68
22.642789125442505,2.73,-3.2,1.65,4.51
22.652754068374634,3.19,-2.24,1.72,4.26
22.662530183792114,4.18,-1.71,1.44,4.74
22.672763109207153,5.82,-1.53,1.05,6.1
22.682770013809204,7.25,-1.06,0.63,7.35
22.692620992660522,7.83,-0.11,0.1,7.83
22.703470945358276,7.98,0.75,-0.53,8.03
22.72852396965027,7.84,1.25,-0.87,7.98
22.73062014579773,8.06,0.93,-0.83,8.15
22.732306003570557,8.9,-0.1,-0.45,8.91
22.74267888069153,9.75,-0.44,0.18,9.76
22.752413034439087,10.12,0.27,0.69,10.14
22.762091875076294,9.82,1.72,0.53,9.98
22.77238917350769,9.13,3.38,-0.1,9.73
22.782347917556763,8.44,4.83,-0.99,9.77
22.792471170425415,7.7,5.71,-1.76,9.74
22.802362203598022,6.8,6.06,-2.08,9.34
22.8268039226532,5.78,6.03,-1.89,8.56
22.828715085983276,5.12,5.84,-1.21,7.86
22.832212209701538,4.86,5.54,-0.48,7.38
22.841981172561646,4.64,5.29,-0.13,7.03
22.852351903915405,4.09,5.3,-0.03,6.69
22.861929178237915,3.36,5.44,-0.02,6.39
22.872068166732788,2.62,5.64,-0.05,6.21
22.882033109664917,1.98,5.93,-0.03,6.25
22.89193320274353,1.55,6.27,-0.12,6.45
22.902008056640625,1.29,6.5,-0.27,6.63
22.925055980682373,0.96,6.73,-0.56,6.82
22.927021026611328,0.59,6.91,-0.89,6.99
22.93197798728943,0.08,6.99,-1.08,7.07
22.941717863082886,-0.35,6.92,-1.1,7.01
22.95161008834839,-0.57,6.8,-1.07,6.9
22.961658000946045,-0.73,6.58,-1.03,6.7
22.97185707092285,-0.8,6.33,-0.93,6.44
22.98157501220703,-0.89,6.05,-0.8,6.16
22.991727113723755,-0.89,5.72,-0.71,5.83
23.002397060394287,-0.8,5.38,-0.7,5.48
23.027302026748657,-0.89,5.12,-0.7,5.24
23.029380083084106,-1.15,4.87,-0.65,5.04
23.031430959701538,-1.35,4.58,-0.58,4.8
23.04134488105774,-1.33,4.32,-0.44,4.54
23.051186084747314,-1.16,4.08,-0.22,4.24
23.06115698814392,-0.85,3.89,-0.02,3.98
23.0711829662323,-0.26,3.69,0.06,3.69
23.08156418800354,0.51,3.38,0.03,3.41
23.091228008270264,1.24,3.21,0.07,3.44
23.102033853530884,1.82,3.11,0.13,3.6
23.126600980758667,2.54,2.68,0.17,3.69
23.128753900527954,3.36,2.15,0.25,3.99
23.13100004196167,4.31,1.63,0.44,4.62
23.140956163406372,5.01,1.27,0.67,5.21
23.150856018066406,5.48,1.13,0.75,5.64
23.160847902297974,6.05,0.68,0.7,6.12
23.171035051345825,6.41,-0.04,0.6,6.43
23.180962085723877,6.27,-0.46,0.61,6.31
23.19089388847351,5.6,-0.6,0.89,5.7
23.200845956802368,4.84,-0.8,1.31,5.07
23.22533106803894,4.8,-1.81,1.63,5.38
23.227264165878296,5.48,-3.71,1.78,6.85
23.230857133865356,5.73,-5.13,1.95,7.93
23.240630865097046,5.87,-5.19,2.17,8.13
23.250415086746216,5.87,-4.66,2.15,7.79
23.260350942611694,5.41,-3.86,1.98,6.93
23.270529985427856,4.68,-2.88,1.62,5.72
23.280501127243042,4.46,-2.77,1.32,5.41
23.29053497314453,4.23,-3.36,1.06,5.5
23.300524950027466,3.31,-3.86,1.17,5.21
23.323529958724976,2.04,-4.33,1.58,5.04
23.325419187545776,0.76,-5.01,1.81,5.38
23.33015513420105,-0.3,-5.74,2.04,6.09
23.3404700756073,-1.14,-6.27,2.17,6.73
23.35028910636902,-1.54,-6.7,1.97,7.15
23.36011815071106,-1.67,-6.79,1.46,7.14
23.37032699584961,-1.76,-6.51,0.83,6.79
23.380187034606934,-2.13,-5.92,0.38,6.3
23.390191078186035,-2.93,-5.3,0.04,6.05
23.400196075439453,-4.0,-5.09,-0.11,6.47
23.42543387413025,-4.99,-5.35,-0.04,7.31
23.427391052246094,-6.0,-5.73,-0.03,8.29
23.429847955703735,-6.92,-6.19,0.01,9.28
23.439976930618286,-7.71,-6.59,-0.16,10.14
23.45013689994812,-8.36,-6.95,-0.58,10.88
23.459819078445435,-9.0,-7.08,-1.0,11.49
23.469895124435425,-9.45,-7.13,-1.3,11.9
23.479789972305298,-9.78,-7.1,-1.47,12.17
23.48999810218811,-9.91,-6.96,-1.4,12.19
23.50058913230896,-9.62,-6.8,-1.02,11.82
23.524198055267334,-8.91,-6.72,-0.38,11.16
23.526326894760132,-8.09,-6.69,0.18,10.49
23.529543161392212,-7.39,-6.54,0.47,9.87
23.53952193260193,-6.61,-6.4,0.57,9.21
23.54959988594055,-5.94,-6.34,0.55,8.7
23.559324979782104,-5.35,-6.26,0.46,8.24
23.569627046585083,-4.66,-6.29,0.35,7.83
23.579429864883423,-3.85,-6.31,0.22,7.39
23.58945393562317,-3.29,-6.12,0.04,6.94
23.599416971206665,-2.89,-5.87,-0.08,6.54
23.623061895370483,-2.46,-5.85,-0.2,6.34
23.624972105026245,-1.91,-5.9,-0.22,6.2
23.62912607192993,-1.2,-5.69,0.02,5.81
23.63950204849243,-0.35,-5.29,0.42,5.31
23.64911198616028,0.79,-5.01,0.74,5.12
23.65884804725647,2.1,-4.84,0.95,5.36
23.669045209884644,3.5,-4.68,1.1,5.94
23.678982973098755,4.77,-4.33,1.11,6.53
23.689014196395874,5.59,-3.57,0.96,6.7
23.69900918006897,5.73,-2.64,0.82,6.36
23.72122311592102,5.89,-2.1,0.68,6.29
23.723227977752686,7.01,-2.82,0.65,7.58
23.728974103927612,8.79,-4.46,0.76,9.88
23.738835096359253,10.11,-5.11,1.18,11.38
23.749392986297607,10.78,-3.97,1.61,11.6
23.75854516029358,10.72,-2.05,1.81,11.06
23.768845081329346,9.92,0.04,1.47,10.02
23.77871298789978,9.16,1.95,0.44,9.37
23.788769960403442,8.62,2.88,-0.77,9.12
23.79874587059021,8.34,3.1,-1.29,8.99
23.82382297515869,7.99,3.35,-1.05,8.72
23.82568597793579,7.73,3.39,-0.41,8.45
23.82847809791565,7.54,3.35,0.26,8.25
23.838528871536255,7.42,3.32,0.61,8.15
23.84835410118103,7.03,3.52,0.54,7.88
23.85871195793152,6.28,3.98,0.41,7.44
23.86847996711731,5.45,4.62,0.17,7.14
23.878326177597046,4.65,5.47,-0.3,7.18
23.888525009155273,3.89,6.24,-0.73,7.38
23.899636030197144,3.26,6.75,-1.17,7.58
23.923856019973755,2.66,7.15,-1.53,7.78
23.92586398124695,2.04,7.42,-1.53,7.84
23.92814803123474,1.42,7.61,-1.52,7.88
23.93805718421936,0.85,7.7,-1.45,7.88
23.94798707962036,0.29,7.66,-1.32,7.77
23.957921028137207,-0.31,7.65,-1.17,7.74
23.968108892440796,-0.82,7.57,-1.0,7.67
23.978127002716064,-1.24,7.53,-0.85,7.67
23.9879949092865,-1.53,7.46,-0.76,7.65
23.99794888496399,-1.7,7.35,-0.72,7.57
24.021458864212036,-1.77,7.28,-0.68,7.52
24.02336812019348,-1.74,7.2,-0.78,7.44
24.02773690223694,-1.82,7.03,-0.85,7.31
24.03780198097229,-1.87,6.86,-0.86,7.16
24.047746896743774,-1.79,6.66,-0.72,6.93
24.057562112808228,-1.67,6.41,-0.51,6.64
24.067808866500854,-1.25,6.17,-0.16,6.29
24.077646017074585,-0.54,5.99,0.22,6.01
24.08760094642639,0.33,5.72,0.39,5.74
24.098480939865112,1.39,5.24,0.53,5.44
24.123071908950806,2.54,4.66,0.65,5.34
24.12515902519226,3.46,4.16,0.72,5.45
24.12737798690796,4.11,3.69,0.85,5.58
24.137336015701294,4.77,3.21,0.86,5.81
24.147351026535034,5.44,2.64,0.83,6.1
24.157356023788452,6.02,1.99,0.9,6.4
24.16756510734558,6.54,1.47,1.1,6.79
24.177417993545532,6.87,1.37,1.41,7.14
24.187340021133423,7.1,1.34,1.55,7.38
24.198046922683716,7.46,1.37,1.38,7.7
24.2225501537323,8.51,0.7,0.83,8.57
24.224562883377075,10.19,-1.1,0.11,10.24
24.227153062820435,11.41,-2.86,-0.65,11.78
24.23692488670349,11.43,-3.24,-1.32,11.95
24.246726989746094,10.35,-2.46,-1.22,10.7
24.25702404975891,8.55,-1.48,-0.44,8.68
24.267067193984985,7.06,-1.63,0.45,7.25
24.27676510810852,5.72,-2.6,1.51,6.46
24.286792039871216,4.51,-3.48,2.63,6.27
24.296808004379272,3.66,-4.47,3.33,6.66
24.319814920425415,3.14,-5.38,3.43,7.11
24.321701049804688,3.1,-6.58,2.85,7.81
24.326560020446777,2.87,-7.64,1.63,8.32
24.336546182632446,2.09,-8.2,0.53,8.47
24.346543073654175,0.98,-8.33,-0.29,8.39
24.356548070907593,-0.39,-8.14,-0.7,8.17
24.366470098495483,-1.71,-7.92,-0.57,8.12
24.3765070438385,-2.52,-7.92,-0.03,8.31
24.386550188064575,-3.15,-8.08,0.46,8.68
24.396646976470947,-4.0,-8.17,0.69,9.12
24.419857025146484,-5.1,-8.28,0.63,9.74
24.42175793647766,-6.48,-8.34,0.33,10.56
24.426284074783325,-7.86,-8.33,0.07,11.45
24.43631100654602,-8.96,-8.29,-0.08,12.2
24.44639301300049,-9.85,-8.16,-0.19,12.79
24.45631504058838,-10.44,-8.07,-0.13,13.19
24.466262102127075,-10.62,-7.96,0.08,13.27
24.47627902030945,-10.6,-7.78,0.35,13.15
24.486478090286255,-10.45,-7.56,0.6,12.91
24.497349977493286,-10.16,-7.39,0.66,12.58
24.51992702484131,-9.83,-7.3,0.42,12.25
24.521929025650024,-9.5,-7.25,0.08,11.95
24.525968074798584,-9.08,-7.27,-0.23,11.63
24.535922050476074,-8.53,-7.26,-0.49,11.21
24.545750856399536,-8.07,-7.27,-0.73,10.88
24.556018114089966,-7.75,-7.2,-0.81,10.6
24.56593108177185,-7.47,-7.12,-0.67,10.34
24.57583498954773,-7.13,-6.98,-0.37,9.98
24.585817098617554,-6.47,-6.83,0.02,9.4
24.597100973129272,-5.55,-6.64,0.36,8.66
24.62020707130432,-4.6,-6.51,0.68,8.0
24.622233152389526,-3.51,-6.45,1.07,7.42
24.62559199333191,-2.39,-6.49,1.36,7.04
24.635581016540527,-1.32,-6.35,1.57,6.67
24.64543604850769,-0.06,-6.25,1.79,6.5
24.65568518638611,1.26,-6.23,2.05,6.67
24.665731191635132,2.62,-6.12,2.3,7.04
24.675493955612183,3.9,-5.8,2.52,7.42
24.685489892959595,5.0,-4.9,2.72,7.51
24.69565987586975,5.83,-3.63,2.8,7.41
24.720102071762085,6.4,-2.34,2.64,7.3
24.722007036209106,7.14,-1.91,2.17,7.7
24.725327014923096,8.53,-2.93,1.6,9.16
24.735230207443237,9.29,-3.84,1.39,10.14
24.74496102333069,9.01,-3.04,1.71,9.66
24.755052089691162,8.57,-1.41,1.9,8.89
24.765228986740112,8.49,-0.41,1.87,8.7
24.775125980377197,8.7,0.19,1.7,8.86
24.785106897354126,8.86,0.53,1.4,8.98
24.79514193534851,8.98,0.99,1.26,9.12
24.81884503364563,9.12,1.69,1.14,9.34
24.820775985717773,9.17,2.61,0.87,9.57
24.824873208999634,9.04,3.42,0.35,9.67
24.834832906723022,8.85,4.1,-0.22,9.75
24.84485101699829,8.4,4.72,-0.78,9.66
24.85493803024292,7.75,5.38,-1.12,9.5
24.864840984344482,7.01,5.93,-1.38,9.28
24.87474513053894,6.28,6.35,-1.44,9.04
24.88475489616394,5.49,6.8,-1.25,8.82
24.89575219154358,4.76,7.19,-1.1,8.69
24.919212102890015,4.08,7.42,-0.94,8.51
24.92115092277527,3.31,7.72,-0.81,8.43
24.924841165542603,2.64,7.9,-0.73,8.36
24.934580087661743,2.05,7.95,-0.76,8.24
24.944403886795044,1.24,7.98,-0.81,8.11
24.954550981521606,0.35,7.89,-0.67,7.92
24.964497089385986,-0.48,7.71,-0.47,7.73
24.974424123764038,-1.19,7.56,-0.2,7.65
24.98437190055847,-1.73,7.48,0.08,7.67
24.995004892349243,-2.09,7.48,0.26,7.77
25.019752979278564,-2.04,7.49,0.44,7.77
25.02164101600647,-1.83,7.47,0.47,7.7
25.024144887924194,-1.83,7.44,0.35,7.66
25.03439497947693,-1.92,7.28,0.21,7.53
25.04406499862671,-2.06,7.04,0.1,7.33
25.05425190925598,-2.08,6.78,0.05,7.09
25.06408715248108,-1.81,6.43,0.1,6.68
25.074060201644897,-1.32,6.12,0.16,6.26
25.084053993225098,-0.7,5.97,0.19,6.01
25.093955993652344,0.31,5.85,0.27,5.86
25.119558095932007,1.79,5.66,0.17,5.93
25.12143588066101,3.42,5.39,-0.02,6.38
25.123584985733032,4.87,5.03,-0.28,7.0
25.133671045303345,5.79,4.54,-0.52,7.37
25.1438090801239,6.19,3.84,-0.6,7.3
25.15373206138611,6.62,3.01,-0.37,7.28
25.16371202468872,7.18,2.03,0.2,7.46
25.173768997192383,7.4,1.28,0.93,7.56
25.183786153793335,7.48,1.01,1.69,7.73
25.193575143814087,7.9,0.75,2.14,8.21
25.219285011291504,9.26,-0.52,2.2,9.53
25.22121787071228,10.83,-2.85,1.98,11.37
25.223254919052124,11.7,-3.95,1.9,12.49
25.233381986618042,12.11,-3.3,1.62,12.65
25.243452072143555,12.14,-2.04,0.88,12.34
25.25317907333374,11.52,-0.78,0.0,11.54
25.2633159160614,10.32,-0.14,-0.71,10.34
25.27334499359131,8.83,-0.37,-0.51,8.85
25.283392190933228,7.51,-1.58,0.7,7.7
25.29316020011902,6.31,-3.35,1.85,7.37
25.317281007766724,5.12,-5.53,2.82,8.04
25.319205045700073,3.89,-7.5,3.66,9.2
25.323082208633423,2.61,-8.86,3.92,10.03
25.332993984222412,1.63,-9.68,3.45,10.4
25.342870950698853,0.64,-9.65,2.36,9.95
25.35296893119812,-0.47,-8.98,1.07,9.05
25.363149881362915,-1.63,-7.97,-0.14,8.13
25.373050928115845,-2.76,-6.94,-1.14,7.55
25.382971048355103,-3.85,-6.13,-1.88,7.47
25.392874002456665,-4.89,-5.64,-2.27,7.8
25.420324087142944,-5.82,-5.38,-2.29,8.24
25.422180891036987,-6.51,-5.52,-2.05,8.77
25.423579931259155,-6.92,-6.01,-1.55,9.29
25.43258309364319,-7.39,-6.43,-0.88,9.83
25.442524194717407,-8.14,-6.61,-0.37,10.49
25.452898025512695,-8.96,-6.71,-0.13,11.19
25.462549924850464,-9.65,-6.81,-0.07,11.81
25.47265601158142,-10.16,-6.85,-0.07,12.25
25.482627153396606,-10.39,-6.93,-0.05,12.48
25.492756128311157,-10.34,-7.06,-0.03,12.52
25.51683497428894,-10.21,-7.17,-0.06,12.47
25.51865315437317,-9.94,-7.34,-0.05,12.35
25.52242398262024,-9.52,-7.56,0.0,12.15
25.53239107131958,-9.14,-7.71,0.05,11.95
25.542243003845215,-8.72,-7.88,0.09,11.75
25.5521719455719,-8.33,-8.04,0.08,11.57
25.562376022338867,-8.03,-8.04,0.1,11.36
25.572291135787964,-7.64,-7.98,0.07,11.04
25.582272052764893,-7.12,-7.95,0.08,10.67
25.592122077941895,-6.64,-7.8,0.16,10.24
25.61538600921631,-5.98,-7.82,0.29,9.84
25.61731791496277,-5.15,-7.94,0.43,9.47
25.62206196784973,-4.23,-8.02,0.66,9.09
25.63196897506714,-3.46,-7.91,1.0,8.69
25.6421320438385,-2.59,-7.63,1.44,8.18
25.65173602104187,-1.69,-7.29,1.8,7.69
25.661945104599,-0.66,-7.08,1.91,7.36
25.67202591896057,0.57,-6.9,1.79,7.15
25.682147979736328,2.05,-6.63,1.54,7.1
25.69181990623474,3.38,-5.97,1.29,6.98
25.716896057128906,4.9,-5.34,0.99,7.31
25.71881413459778,7.0,-5.82,0.55,9.12
25.721585988998413,8.91,-7.35,0.19,11.55
25.731425046920776,9.64,-8.2,0.38,12.66
25.74156403541565,9.37,-7.15,1.08,11.83
25.751685857772827,9.21,-5.41,1.85,10.84
25.761706113815308,9.39,-3.53,2.27,10.28
25.771615028381348,9.77,-1.68,2.38,10.19
25.78245997428894,10.21,-0.43,2.26,10.46
25.79221510887146,10.41,0.31,1.97,10.59
25.81690001487732,10.34,0.77,1.7,10.5
25.81895089149475,10.07,1.2,1.54,10.25
25.82111096382141,9.81,1.63,1.24,10.02
25.831146001815796,9.56,2.02,0.87,9.8
25.841159105300903,9.26,2.54,0.68,9.62
25.851102113723755,8.63,3.33,0.47,9.26
25.861191987991333,7.66,4.27,0.47,8.78
25.871198892593384,6.69,5.22,0.33,8.49
25.881168127059937,5.8,5.96,0.09,8.31
25.89109492301941,4.96,6.53,-0.11,8.2
25.916125059127808,4.06,7.04,-0.31,8.13
25.918028116226196,3.11,7.48,-0.58,8.12
25.92079520225525,2.12,7.73,-0.78,8.05
25.930987119674683,1.22,7.82,-0.88,7.96
25.94098687171936,0.45,7.82,-0.92,7.88
25.95073390007019,-0.41,7.74,-0.89,7.8
25.96072506904602,-1.25,7.64,-0.65,7.76
25.970895051956177,-2.0,7.6,-0.39,7.86
25.980744123458862,-2.47,7.58,-0.15,7.97
25.990689039230347,-2.76,7.6,0.04,8.08
26.01418709754944,-2.93,7.66,0.21,8.2
26.016113996505737,-2.93,7.77,0.3,8.3
26.020490884780884,-2.79,7.87,0.27,8.35
26.030367136001587,-2.44,7.98,0.07,8.34
26.040404081344604,-1.87,7.95,-0.29,8.17
26.050338983535767,-1.33,7.89,-0.61,8.02
26.060489892959595,-0.82,7.76,-0.85,7.84
26.070518016815186,-0.13,7.51,-1.04,7.58
26.08035397529602,0.71,7.2,-1.16,7.32
26.09064507484436,1.61,6.85,-1.08,7.11
26.11694097518921,2.67,6.39,-0.85,6.97
26.118776082992554,3.78,6.04,-0.61,7.15
26.12009906768799,4.82,5.67,-0.48,7.45
26.130295038223267,5.77,5.14,-0.5,7.74
26.140040159225464,6.83,4.53,-0.54,8.21
26.149976015090942,7.9,3.77,-0.53,8.76
26.160127878189087,8.97,3.14,-0.18,9.5
26.170186042785645,9.66,2.93,0.13,10.09
26.17998194694519,9.94,2.93,0.18,10.36
26.190150022506714,10.76,2.18,0.26,10.98
26.214704036712646,12.77,-0.27,0.55,12.78
26.21659016609192,14.79,-2.86,1.34,15.12
26.220001935958862,15.61,-3.59,2.09,16.15
26.22958493232727,15.31,-2.84,2.19,15.72
26.239561080932617,13.73,-1.49,1.76,13.92
26.249580144882202,11.52,-0.21,1.43,11.61
26.259554147720337,9.61,0.23,1.11,9.67
26.269761085510254,8.23,-0.37,1.21,8.32
26.27965807914734,7.53,-1.61,1.92,7.93
26.289700031280518,7.26,-3.3,2.39,8.32
26.31286120414734,7.15,-5.41,2.44,9.29
26.314743995666504,6.58,-7.18,2.23,9.99
26.31972098350525,5.47,-8.26,1.74,10.05
26.32941508293152,3.97,-8.6,1.22,9.55
26.33945918083191,2.47,-8.4,0.74,8.78
26.349272966384888,1.05,-7.73,0.25,7.8
26.35966205596924,-0.26,-6.91,-0.19,6.91
26.369334936141968,-1.52,-6.36,-0.5,6.55
26.379274129867554,-2.95,-6.04,-0.61,6.74
26.389424085617065,-4.32,-6.01,-0.54,7.42
26.414950132369995,-5.53,-6.18,-0.43,8.3
26.41687798500061,-6.49,-6.46,-0.18,9.15
26.41909408569336,-7.33,-6.68,0.05,9.91
26.429033041000366,-8.3,-6.74,-0.06,10.69
26.438966035842896,-9.36,-6.8,-0.36,11.57
26.449107885360718,-10.44,-6.69,-0.65,12.41
26.45920705795288,-11.2,-6.51,-0.78,12.97
26.469038009643555,-11.47,-6.58,-0.74,13.24
26.479058027267456,-11.69,-6.63,-0.67,13.45
26.489731073379517,-11.91,-6.74,-0.59,13.69
26.51420497894287,-11.85,-7.06,-0.56,13.8
26.51613998413086,-11.6,-7.26,-0.39,13.69
26.51870608329773,-11.2,-7.37,-0.2,13.4
26.52877402305603,-10.59,-7.54,0.0,12.99
26.538697957992554,-9.8,-7.59,0.24,12.39
26.548826932907104,-8.81,-7.48,0.54,11.56
26.558709859848022,-7.68,-7.32,0.79,10.63
26.568708181381226,-6.83,-7.06,0.88,9.86
26.578643083572388,-6.28,-6.84,0.94,9.33
26.58863401412964,-5.84,-6.81,0.95,9.02
26.614366054534912,-5.57,-6.93,0.95,8.94
26.616225957870483,-5.24,-7.1,1.05,8.88
26.61828112602234,-4.74,-7.38,1.2,8.85
26.628289937973022,-3.98,-7.8,1.37,8.86
26.638367891311646,-2.95,-8.06,1.54,8.71
26.648182153701782,-1.55,-8.36,1.47,8.62
26.65858292579651,-0.06,-8.44,1.33,8.54
26.668346166610718,1.2,-8.06,1.18,8.23
26.678224086761475,1.69,-7.37,0.91,7.61
26.688306093215942,1.9,-6.65,0.65,6.94
26.71201491355896,2.67,-6.7,0.52,7.23
26.7138831615448,4.58,-8.2,0.31,9.39
26.71790909767151,6.46,-10.16,0.24,12.04
26.728048086166382,7.06,-10.78,0.64,12.9
26.737953901290894,6.98,-9.57,1.5,11.93
26.747731924057007,6.59,-7.43,2.34,10.2
26.758116006851196,6.49,-4.99,2.87,8.67
26.76796317100525,7.17,-3.15,2.71,8.28
26.777894973754883,8.29,-2.66,1.95,8.92
26.787884950637817,9.4,-2.79,1.04,9.86
26.811580896377563,9.84,-2.66,0.54,10.2
26.81347393989563,9.46,-2.28,0.54,9.74
26.817746877670288,8.97,-1.93,0.87,9.21
26.827553033828735,8.71,-1.65,1.15,8.93
26.837542057037354,8.35,-1.0,1.25,8.5
26.84767508506775,7.58,0.27,1.16,7.67
26.857640027999878,6.56,1.81,0.86,6.85
26.867587089538574,5.79,3.11,0.4,6.58
26.877434968948364,5.18,4.24,-0.01,6.69
26.887526035308838,4.8,5.12,-0.24,7.02
26.914634943008423,4.33,5.83,-0.45,7.27
26.916531085968018,3.37,6.4,-0.66,7.26
26.917895078659058,2.23,6.71,-0.77,7.11
26.927090883255005,1.22,6.76,-0.8,6.91
26.93715786933899,0.53,6.66,-0.73,6.72
26.947014093399048,-0.12,6.55,-0.55,6.57
26.957534074783325,-0.81,6.66,-0.42,6.72
26.96715998649597,-1.37,6.73,-0.29,6.87
26.97717785835266,-1.79,6.84,-0.21,7.07
26.987097024917603,-2.0,6.96,-0.22,7.24
27.012906074523926,-1.97,7.12,-0.24,7.39
27.01481795310974,-1.86,7.32,-0.31,7.55
27.017027139663696,-1.67,7.57,-0.41,7.76
27.02682900428772,-1.28,7.76,-0.53,7.88
27.036773920059204,-0.69,7.91,-0.78,7.97
27.046638011932373,0.04,7.87,-1.07,7.94
27.05695104598999,0.74,7.82,-1.2,7.94
27.066895008087158,1.64,7.87,-1.21,8.12
27.076793909072876,2.76,7.86,-1.23,8.42
27.086798906326294,3.87,7.73,-1.15,8.72
27.111783981323242,4.61,7.64,-1.17,8.99
27.113668203353882,4.97,7.4,-1.24,8.99
27.116559982299805,5.31,6.92,-1.17,8.8
27.126560926437378,5.68,6.33,-0.99,8.56
27.136393070220947,6.12,5.71,-0.71,8.4
27.146703958511353,6.68,5.09,-0.37,8.4
27.15673518180847,7.26,4.5,-0.16,8.54
27.16652512550354,7.58,4.19,-0.09,8.66
27.176457166671753,7.75,4.08,-0.38,8.76
27.18652319908142,8.5,3.09,-0.77,9.07
27.21078610420227,10.12,0.73,-1.09,10.2
27.212661027908325,11.59,-1.16,-1.0,11.69
27.21622395515442,11.98,-0.91,-0.6,12.02
27.22616410255432,11.32,0.59,-0.32,11.33
27.236114978790283,10.66,1.88,-0.69,10.84
27.245902061462402,10.52,2.16,-1.51,10.84
27.25644302368164,10.44,1.42,-1.92,10.7
27.2661349773407,10.27,-0.02,-1.66,10.4
27.276125192642212,10.03,-1.57,-0.84,10.18
27.2868549823761,9.48,-2.59,0.46,9.83
27.311157941818237,8.92,-3.41,1.5,9.66
27.313189029693604,8.43,-4.07,2.13,9.6
27.315927982330322,7.78,-4.3,2.43,9.21
27.325734853744507,7.01,-4.18,2.44,8.51
27.33575701713562,6.13,-3.82,2.13,7.53
27.345951080322266,5.13,-3.33,1.66,6.33
27.355854034423828,4.02,-2.91,1.31,5.13
27.36574387550354,2.9,-2.79,1.19,4.19
27.375699996948242,1.78,-2.95,1.11,3.61
27.38657307624817,0.51,-3.14,0.99,3.33
27.412739992141724,-0.73,-3.4,0.79,3.56
27.414703130722046,-1.81,-3.77,0.51,4.21
27.416027069091797,-2.67,-4.21,0.16,4.98
27.42547607421875,-3.37,-4.78,-0.11,5.84
27.435564041137695,-4.22,-5.07,-0.28,6.6
27.445441961288452,-5.16,-5.1,-0.38,7.26
27.455447912216187,-5.98,-5.06,-0.34,7.84
27.465471982955933,-6.61,-5.19,-0.29,8.4
27.475367069244385,-7.36,-5.32,-0.36,9.08
27.485470056533813,-8.02,-5.55,-0.43,9.76
27.509187936782837,-8.43,-5.92,-0.47,10.31
27.511089086532593,-8.62,-6.39,-0.47,10.74
27.515173196792603,-8.66,-6.88,-0.32,11.06
27.525119066238403,-8.59,-7.43,-0.2,11.35
27.53515601158142,-8.7,-7.81,-0.08,11.69
27.544957876205444,-8.94,-8.01,-0.06,12.0
27.555118083953857,-9.0,-8.26,-0.08,12.21
27.56504511833191,-8.93,-8.54,0.01,12.35
27.575077056884766,-8.63,-8.86,0.18,12.36
27.58498787879944,-8.06,-9.29,0.49,12.3
27.607989072799683,-7.31,-9.59,0.92,12.09
27.610018014907837,-6.5,-9.65,1.42,11.72
27.6147940158844,-5.5,-9.59,1.99,11.23
27.62478995323181,-4.51,-9.34,2.54,10.67
27.635021924972534,-3.7,-9.04,2.93,10.19
27.644728899002075,-3.25,-8.69,3.04,9.76
27.654885053634644,-2.96,-8.27,3.0,9.28
27.664725065231323,-2.53,-7.71,2.87,8.6
27.67469620704651,-2.07,-7.24,2.62,7.97
27.68463897705078,-1.23,-7.28,2.22,7.7
27.70962905883789,0.22,-8.43,1.71,8.6
27.71153998374939,1.86,-10.15,1.13,10.38
27.71454906463623,2.87,-11.06,0.84,11.45
27.724530935287476,2.9,-10.47,0.93,10.9
27.734272003173828,2.73,-8.67,1.28,9.17
27.74462103843689,2.95,-7.0,1.65,7.77
27.75449800491333,3.76,-5.9,2.1,7.3
27.764265060424805,4.73,-5.28,2.34,7.46
27.774311065673828,5.53,-4.96,2.22,7.75
27.785319089889526,5.92,-4.91,1.99,7.94
27.81114411354065,6.1,-4.93,1.7,8.02
27.813196897506714,6.23,-4.9,1.46,8.05
27.81447720527649,6.15,-4.72,1.36,7.87
27.823972940444946,6.06,-4.19,1.29,7.47
27.833860158920288,5.92,-3.21,1.04,6.81
27.843817949295044,5.8,-1.76,0.97,6.13
27.854207038879395,5.6,-0.08,0.81,5.65
27.863774061203003,5.46,1.5,0.51,5.68
27.873866081237793,5.42,2.81,0.23,6.1
27.883776903152466,5.31,3.86,-0.02,6.56
27.909741163253784,4.86,4.56,-0.19,6.66
27.911895990371704,4.05,5.07,-0.23,6.49
27.913615942001343,3.13,5.38,-0.26,6.22
27.923726081848145,2.04,5.46,-0.28,5.83
27.933568000793457,1.02,5.43,-0.33,5.53
27.943443059921265,0.19,5.35,-0.37,5.36
27.953885078430176,-0.48,5.43,-0.45,5.46
27.963671922683716,-1.09,5.69,-0.61,5.82
27.9736270904541,-1.48,6.02,-0.87,6.26
27.98347306251526,-1.54,6.4,-1.17,6.68
28.00660014152527,-1.38,6.69,-1.38,6.96
28.00853705406189,-1.12,6.89,-1.55,7.15
28.01326608657837,-0.84,7.1,-1.55,7.31
28.023349046707153,-0.48,7.26,-1.32,7.39
28.03329586982727,0.05,7.35,-1.05,7.42
28.04360008239746,0.67,7.33,-0.83,7.4
28.053324937820435,1.44,7.15,-0.63,7.32
28.063204050064087,2.43,6.78,-0.5,7.21
28.073286056518555,3.52,6.35,-0.29,7.26
28.083904027938843,4.96,6.17,-0.01,7.91
28.108744859695435,6.51,6.05,-0.06,8.88
28.110761880874634,7.89,5.86,-0.29,9.83
28.11293911933899,8.91,5.65,-0.52,10.56
28.123008012771606,9.73,5.12,-0.67,11.01
28.132941007614136,10.28,4.66,-0.49,11.29
28.14301085472107,10.56,4.57,-0.08,11.5
28.153143167495728,10.7,4.58,0.4,11.64
28.162997007369995,10.85,4.51,0.7,11.77
28.17288303375244,11.74,3.46,0.82,12.26
28.183674097061157,13.52,1.14,0.89,13.59
28.209222078323364,15.03,-0.85,0.99,15.08
28.211173057556152,15.6,-0.67,0.82,15.63
28.212604999542236,15.07,0.92,0.04,15.09
28.22278094291687,13.28,2.45,-0.98,13.53
28.232456922531128,11.33,3.11,-1.51,11.84
28.24234700202942,9.61,2.59,-1.18,10.02
28.252565145492554,8.24,1.47,0.43,8.38
28.26252818107605,7.33,0.09,2.66,7.79
28.272526025772095,6.86,-1.45,4.69,8.43
28.28243398666382,6.59,-2.89,5.82,9.25
28.306339979171753,6.37,-4.09,5.66,9.45
28.308254957199097,5.83,-5.03,4.44,8.88
28.31247115135193,4.97,-5.33,2.77,7.79
28.322293043136597,3.98,-5.08,1.05,6.53
28.332154035568237,2.78,-4.79,-0.3,5.54
28.34195899963379,1.47,-4.43,-0.92,4.75
28.35222887992859,0.32,-4.12,-1.02,4.25
28.362163066864014,-0.77,-4.11,-0.89,4.27
28.37219214439392,-1.85,-4.33,-0.67,4.75
28.382039070129395,-2.99,-4.56,-0.42,5.46
28.40639615058899,-4.13,-4.74,-0.22,6.29
28.408366918563843,-5.24,-4.89,-0.15,7.16
28.411927938461304,-6.21,-4.88,-0.2,7.9
28.42189908027649,-6.87,-4.82,-0.35,8.39
28.431745052337646,-7.13,-4.91,-0.47,8.66
28.44190287590027,-7.28,-4.95,-0.64,8.82
28.45180106163025,-7.58,-4.88,-0.89,9.05
28.462001085281372,-7.82,-4.96,-0.99,9.31
28.471771955490112,-7.99,-5.04,-1.05,9.5
28.48282504081726,-7.89,-5.25,-1.03,9.53
28.50752305984497,-7.78,-5.53,-0.89,9.58
28.509510040283203,-7.54,-6.03,-0.66,9.67
28.511422872543335,-7.21,-6.72,-0.49,9.86
28.52155900001526,-7.05,-7.18,-0.38,10.06
28.531447172164917,-6.98,-7.33,-0.37,10.12
28.541558980941772,-6.9,-7.34,-0.51,10.08
28.551552057266235,-6.73,-7.46,-0.68,10.07
28.561511039733887,-6.51,-7.63,-0.72,10.05
28.571449995040894,-6.25,-7.82,-0.51,10.02
28.581326007843018,-5.69,-8.22,-0.15,9.99
28.606921911239624,-5.05,-8.62,0.23,9.99
28.608763933181763,-4.46,-8.98,0.61,10.04
28.611408948898315,-3.99,-9.28,0.85,10.13
28.62120795249939,-3.62,-9.52,1.05,10.23
28.630990982055664,-3.18,-9.71,1.29,10.29
28.640907049179077,-2.59,-9.88,1.4,10.3
28.651429891586304,-2.14,-9.83,1.4,10.15
28.661018133163452,-1.84,-9.53,1.4,9.8
28.671082019805908,-1.23,-9.47,1.5,9.66
28.680958032608032,-0.08,-10.04,1.6,10.16
28.704710006713867,1.17,-11.18,1.45,11.33
28.70661997795105,2.18,-12.11,1.11,12.35
28.710789918899536,2.45,-11.8,0.96,12.08
28.720859050750732,2.26,-10.64,0.97,10.92
28.730520963668823,2.24,-9.11,1.1,9.44
28.740885972976685,2.47,-7.39,1.36,7.9
28.750675916671753,3.16,-5.81,1.31,6.74
28.760698080062866,4.17,-4.85,0.86,6.45
28.770551919937134,5.23,-4.57,0.38,6.95
28.781315088272095,5.93,-4.56,0.01,7.48
28.80660104751587,6.16,-4.63,-0.04,7.7
28.80869698524475,5.83,-4.59,0.19,7.42
28.81014609336853,5.32,-4.48,0.56,6.97
28.820433855056763,4.98,-4.15,0.87,6.54
28.830347061157227,4.76,-3.45,1.12,5.98
28.840461015701294,4.63,-2.22,1.34,5.3
28.85045886039734,4.92,-0.69,1.55,5.2
28.860267877578735,5.51,0.79,1.39,5.73
28.87037491798401,5.86,2.27,0.81,6.33
28.880236864089966,5.7,3.48,0.3,6.68
28.905642986297607,5.12,4.41,-0.02,6.75
28.90759801864624,4.47,5.06,-0.21,6.75
28.910037994384766,3.83,5.4,-0.23,6.62
28.920039892196655,3.32,5.62,-0.17,6.52
28.930132150650024,2.87,5.77,-0.08,6.44
28.940113067626953,2.43,5.93,-0.01,6.4
28.95008397102356,2.02,6.2,0.02,6.52
28.960034132003784,1.82,6.52,0.12,6.77
28.969990968704224,1.98,6.81,0.19,7.09
28.980881929397583,2.26,7.1,0.26,7.45
29.005223989486694,2.56,7.3,0.43,7.74
29.007291078567505,2.82,7.47,0.62,8.0
29.009578943252563,2.79,7.66,0.79,8.19
29.019630193710327,2.61,7.72,0.93,8.2
29.029813051223755,2.52,7.69,0.92,8.14
29.039515018463135,2.56,7.64,0.88,8.1
29.049680948257446,2.78,7.75,0.84,8.27
29.059541940689087,3.37,7.86,0.69,8.57
29.069577932357788,4.42,7.87,0.42,9.03
29.079519987106323,5.45,7.92,0.15,9.61
29.104124069213867,6.4,7.95,-0.15,10.2
29.106087923049927,7.28,7.93,-0.48,10.77
29.109333038330078,8.01,7.81,-0.76,11.21
29.11940312385559,8.58,7.44,-0.87,11.38
29.129245042800903,8.9,7.03,-0.79,11.36
29.13912320137024,9.09,6.77,-0.38,11.34
29.149363040924072,9.19,6.64,0.23,11.34
29.159260034561157,9.48,6.2,0.66,11.34
29.16928505897522,9.72,5.84,0.83,11.36
29.17939805984497,10.74,5.42,0.29,12.03
29.20382308959961,12.43,3.41,-0.73,12.9
29.20577907562256,13.84,1.44,-1.36,13.98
29.20896005630493,14.1,0.47,-1.93,14.23
29.218805074691772,12.83,0.29,-2.26,13.03
29.228684186935425,10.48,0.71,-1.6,10.62
29.238839864730835,8.24,1.19,-0.36,8.33
29.249017000198364,6.01,1.61,1.07,6.31
29.258858919143677,4.29,2.25,2.9,5.64
29.268935918807983,4.3,1.77,4.57,6.51
29.278827905654907,5.67,0.38,5.37,7.81
29.304131984710693,7.49,-1.61,4.8,9.04
29.306063890457153,8.85,-3.3,3.72,10.15
29.308645009994507,9.63,-4.54,2.59,10.95
29.318618059158325,9.85,-5.69,1.25,11.44
29.32846713066101,9.43,-6.64,0.2,11.53
29.338701009750366,8.4,-7.24,-0.41,11.09
29.348551988601685,6.85,-7.83,-0.53,10.41
29.358672857284546,4.55,-8.34,-0.25,9.5
29.368571043014526,1.78,-8.43,0.06,8.61
29.37843108177185,-1.04,-8.4,0.17,8.46
29.405944108963013,-3.36,-8.4,0.24,9.05
29.40784192085266,-5.32,-8.16,0.2,9.74
29.40925097465515,-6.85,-7.93,0.16,10.48
29.418302059173584,-8.06,-7.65,0.12,11.11
29.428137063980103,-8.77,-7.45,0.09,11.5
29.438134908676147,-9.21,-7.46,-0.13,11.85
29.448179960250854,-9.87,-7.39,-0.72,12.35
29.458175897598267,-10.7,-7.37,-1.25,13.05
29.468208074569702,-11.57,-7.37,-1.51,13.8
29.478112936019897,-12.31,-7.35,-1.56,14.42
29.502624034881592,-12.73,-7.38,-1.33,14.77
29.504508018493652,-12.69,-7.44,-0.86,14.73
29.508089065551758,-12.15,-7.68,-0.33,14.37
29.517821073532104,-11.37,-7.84,0.03,13.81
29.52779507637024,-10.38,-8.1,0.21,13.16
29.53787112236023,-9.62,-8.4,0.2,12.77
29.54808020591736,-9.29,-8.53,0.09,12.61
29.55782389640808,-9.0,-8.72,0.13,12.53
29.567836046218872,-8.52,-8.99,0.34,12.39
29.577702045440674,-8.1,-9.19,0.66,12.26
29.603996992111206,-7.54,-9.3,1.18,12.03
29.605907201766968,-6.84,-9.29,1.78,11.67
29.607332944869995,-6.15,-9.24,2.22,11.31
29.617595911026,-5.14,-9.35,2.72,11.01
29.627418994903564,-3.65,-9.56,3.19,10.71
29.637391090393066,-1.95,-9.61,3.41,10.38
29.647454977035522,-0.36,-9.59,3.34,10.16
29.657517194747925,0.96,-9.46,3.06,9.98
29.66751790046692,1.82,-9.21,2.43,9.69
29.677325010299683,2.97,-9.69,1.8,10.29
29.701608896255493,4.61,-11.23,1.21,12.19
29.703552961349487,5.75,-12.44,0.74,13.72
29.707175970077515,5.88,-12.17,0.56,13.52
29.71719717979431,5.63,-10.32,0.66,11.77
29.727082014083862,5.81,-7.99,0.71,9.9
29.73701786994934,6.74,-6.0,0.66,9.04
29.746805906295776,7.78,-4.24,0.32,8.86
29.75699019432068,9.09,-3.24,-0.28,9.65
29.767028093338013,10.1,-2.84,-0.79,10.52
29.777097940444946,10.27,-2.41,-1.05,10.6
29.801186084747314,9.91,-1.9,-0.95,10.13
29.80316400527954,9.37,-1.48,-0.58,9.5
29.806774854660034,8.66,-0.96,-0.16,8.71
29.816724061965942,7.91,-0.37,0.24,7.92
29.82663106918335,7.03,0.53,0.54,7.07
29.836649179458618,5.98,1.66,0.76,6.25
29.84695792198181,5.09,2.8,0.91,5.88
29.856796979904175,4.4,3.89,0.91,5.94
29.866662979125977,3.88,4.78,0.86,6.21
29.87664294242859,3.38,5.44,0.88,6.46
29.90226697921753,2.75,6.0,0.82,6.65
29.904186010360718,1.95,6.3,0.5,6.61
29.90661907196045,1.23,6.36,0.23,6.48
29.916434049606323,0.72,6.41,0.09,6.45
29.926339864730835,0.16,6.54,-0.06,6.54
29.936269998550415,-0.36,6.67,-0.07,6.68
29.946563005447388,-0.9,6.81,-0.08,6.86
29.95645785331726,-1.37,7.05,0.02,7.18
29.966341972351074,-1.58,7.23,0.33,7.4
29.97627091407776,-1.57,7.31,0.67,7.5
30.00463604927063,-1.43,7.43,0.94,7.62
30.006702184677124,-1.05,7.49,1.13,7.64
30.008093118667603,-0.47,7.57,1.19,7.67
30.01607918739319,0.17,7.72,1.03,7.79
30.02589201927185,1.03,7.75,0.61,7.84
30.03590703010559,2.0,7.71,0.15,7.96
30.04578995704651,2.92,7.7,-0.11,8.23
30.05605697631836,3.7,7.59,-0.28,8.44
30.066004991531372,4.43,7.3,-0.38,8.54
30.075862169265747,5.21,6.79,-0.42,8.56
30.09950613975525,5.99,6.4,-0.37,8.77
